File: XRD/1.xy
5.00000 641.000
5.04000 627.000
5.08000 591.000
5.12000 599.000
5.16000 563.000
5.20000 591.000
5.24000 598.000
5.28000 603.000
5.32000 597.000
5.36000 574.000
5.40000 615.000
5.44000 546.000
5.48000 566.000
5.52000 544.000
5.56000 537.000
5.60000 564.000
5.64000 521.000
5.68000 529.000
5.72000 499.000
5.76000 524.000
5.80000 531.000
5.84000 509.000
5.88000 548.000
5.92000 471.000
5.96000 491.000
6.00000 505.000
6.04000 495.000
6.08000 506.000
6.12000 509.000
6.16000 513.000
6.20000 483.000
6.24000 491.000
6.28000 505.000
6.32000 459.000
6.36000 461.000
6.40000 469.000
6.44000 447.000
6.48000 448.000
6.52000 457.000
6.56000 444.000
6.60000 433.000
6.64000 451.000
6.68000 418.000
6.72000 433.000
6.76000 432.000
6.80000 463.000
6.84000 437.000
6.88000 431.000
6.92000 438.000
6.96000 442.000
7.00000 424.000
7.04000 398.000
7.08000 395.000
7.12000 441.000
7.16000 410.000
7.20000 438.000
7.24000 425.000
7.28000 406.000
7.32000 417.000
7.36000 389.000
7.40000 436.000
7.44000 384.000
7.48000 422.000
7.52000 407.000
7.56000 374.000
7.60000 410.000
7.64000 402.000
7.68000 349.000
7.72000 394.000
7.76000 363.000
7.80000 390.000
7.84000 388.000
7.88000 383.000
7.92000 356.000
7.96000 381.000
8.00000 335.000
8.04000 389.000
8.08000 374.000
8.12000 394.000
8.16000 348.000
8.20000 359.000
8.24000 345.000
8.28000 375.000
8.32000 384.000
8.36000 351.000
8.40000 342.000
8.44000 363.000
8.48000 348.000
8.52000 395.000
8.56000 320.000
8.60000 328.000
8.64000 338.000
8.68000 327.000
8.72000 360.000
8.76000 362.000
8.80000 334.000
8.84000 355.000
8.88000 327.000
8.92000 344.000
8.96000 341.000
9.00000 308.000
9.04000 316.000
9.08000 347.000
9.12000 316.000
9.16000 351.000
9.20000 341.000
9.24000 312.000
9.28000 316.000
9.32000 322.000
9.36000 335.000
9.40000 303.000
9.44000 321.000
9.48000 328.000
9.52000 303.000
9.56000 290.000
9.60000 322.000
9.64000 284.000
9.68000 276.000
9.72000 306.000
9.76000 303.000
9.80000 298.000
9.84000 316.000
9.88000 306.000
9.92000 282.000
9.96000 320.000
10.00000 283.000
10.04000 278.000
10.08000 296.000
10.12000 270.000
10.16000 273.000
10.20000 295.000
10.24000 277.000
10.28000 302.000
10.32000 268.000
10.36000 265.000
10.40000 275.000
10.44000 288.000
10.48000 275.000
10.52000 294.000
10.56000 268.000
10.60000 294.000
10.64000 291.000
10.68000 283.000
10.72000 270.000
10.76000 282.000
10.80000 291.000
10.84000 279.000
10.88000 308.000
10.92000 278.000
10.96000 287.000
11.00000 271.000
11.04000 277.000
11.08000 302.000
11.12000 290.000
11.16000 311.000
11.20000 323.000
11.24000 300.000
11.28000 358.000
11.32000 350.000
11.36000 408.000
11.40000 376.000
11.44000 396.000
11.48000 426.000
11.52000 362.000
11.56000 361.000
11.60000 354.000
11.64000 367.000
11.68000 343.000
11.72000 398.000
11.76000 402.000
11.80000 380.000
11.84000 334.000
11.88000 334.000
11.92000 339.000
11.96000 329.000
12.00000 337.000
12.04000 293.000
12.08000 306.000
12.12000 341.000
12.16000 343.000
12.20000 336.000
12.24000 344.000
12.28000 371.000
12.32000 356.000
12.36000 377.000
12.40000 358.000
12.44000 423.000
12.48000 365.000
12.52000 402.000
12.56000 405.000
12.60000 434.000
12.64000 448.000
12.68000 454.000
12.72000 468.000
12.76000 483.000
12.80000 502.000
12.84000 589.000
12.88000 581.000
12.92000 611.000
12.96000 625.000
13.00000 609.000
13.04000 683.000
13.08000 739.000
13.12000 775.000
13.16000 871.000
13.20000 938.000
13.24000 957.000
13.28000 1054.000
13.32000 1152.000
13.36000 1303.000
13.40000 1305.000
13.44000 1425.000
13.48000 1549.000
13.52000 1730.000
13.56000 1957.000
13.60000 2160.000
13.64000 2427.000
13.68000 2687.000
13.72000 3058.000
13.76000 3486.000
13.80000 3910.000
13.84000 4358.000
13.88000 4343.000
13.92000 3871.000
13.96000 3057.000
14.00000 2305.000
14.04000 1859.000
14.08000 1507.000
14.12000 1182.000
14.16000 1042.000
14.20000 877.000
14.24000 796.000
14.28000 747.000
14.32000 644.000
14.36000 597.000
14.40000 545.000
14.44000 478.000
14.48000 509.000
14.52000 426.000
14.56000 437.000
14.60000 407.000
14.64000 366.000
14.68000 358.000
14.72000 370.000
14.76000 338.000
14.80000 323.000
14.84000 316.000
14.88000 329.000
14.92000 268.000
14.96000 295.000
15.00000 298.000
15.04000 255.000
15.08000 269.000
15.12000 257.000
15.16000 243.000
15.20000 279.000
15.24000 256.000
15.28000 219.000
15.32000 267.000
15.36000 244.000
15.40000 227.000
15.44000 222.000
15.48000 203.000
15.52000 216.000
15.56000 211.000
15.60000 232.000
15.64000 211.000
15.68000 199.000
15.72000 218.000
15.76000 191.000
15.80000 218.000
15.84000 191.000
15.88000 175.000
15.92000 182.000
15.96000 179.000
16.00000 194.000
16.04000 226.000
16.08000 188.000
16.12000 203.000
16.16000 190.000
16.20000 217.000
16.24000 193.000
16.28000 189.000
16.32000 202.000
16.36000 179.000
16.40000 173.000
16.44000 205.000
16.48000 171.000
16.52000 166.000
16.56000 175.000
16.60000 156.000
16.64000 173.000
16.68000 195.000
16.72000 190.000
16.76000 202.000
16.80000 202.000
16.84000 174.000
16.88000 168.000
16.92000 177.000
16.96000 187.000
17.00000 194.000
17.04000 206.000
17.08000 148.000
17.12000 180.000
17.16000 183.000
17.20000 171.000
17.24000 182.000
17.28000 184.000
17.32000 191.000
17.36000 169.000
17.40000 174.000
17.44000 214.000
17.48000 183.000
17.52000 178.000
17.56000 153.000
17.60000 174.000
17.64000 182.000
17.68000 192.000
17.72000 186.000
17.76000 159.000
17.80000 188.000
17.84000 177.000
17.88000 183.000
17.92000 164.000
17.96000 173.000
18.00000 165.000
18.04000 173.000
18.08000 191.000
18.12000 172.000
18.16000 176.000
18.20000 166.000
18.24000 180.000
18.28000 188.000
18.32000 159.000
18.36000 174.000
18.40000 169.000
18.44000 165.000
18.48000 186.000
18.52000 166.000
18.56000 187.000
18.60000 171.000
18.64000 182.000
18.68000 181.000
18.72000 188.000
18.76000 161.000
18.80000 197.000
18.84000 177.000
18.88000 177.000
18.92000 179.000
18.96000 187.000
19.00000 160.000
19.04000 219.000
19.08000 191.000
19.12000 205.000
19.16000 197.000
19.20000 184.000
19.24000 235.000
19.28000 206.000
19.32000 237.000
19.36000 249.000
19.40000 292.000
19.44000 290.000
19.48000 287.000
19.52000 321.000
19.56000 387.000
19.60000 370.000
19.64000 426.000
19.68000 431.000
19.72000 497.000
19.76000 405.000
19.80000 389.000
19.84000 335.000
19.88000 300.000
19.92000 254.000
19.96000 242.000
20.00000 263.000
20.04000 224.000
20.08000 220.000
20.12000 221.000
20.16000 207.000
20.20000 172.000
20.24000 174.000
20.28000 180.000
20.32000 191.000
20.36000 161.000
20.40000 200.000
20.44000 197.000
20.48000 193.000
20.52000 181.000
20.56000 179.000
20.60000 199.000
20.64000 188.000
20.68000 163.000
20.72000 197.000
20.76000 170.000
20.80000 161.000
20.84000 181.000
20.88000 175.000
20.92000 188.000
20.96000 174.000
21.00000 188.000
21.04000 188.000
21.08000 168.000
21.12000 164.000
21.16000 159.000
21.20000 162.000
21.24000 173.000
21.28000 143.000
21.32000 177.000
21.36000 191.000
21.40000 163.000
21.44000 168.000
21.48000 168.000
21.52000 158.000
21.56000 174.000
21.60000 165.000
21.64000 198.000
21.68000 175.000
21.72000 160.000
21.76000 170.000
21.80000 186.000
21.84000 147.000
21.88000 143.000
21.92000 187.000
21.96000 174.000
22.00000 153.000
22.04000 169.000
22.08000 174.000
22.12000 171.000
22.16000 165.000
22.20000 172.000
22.24000 173.000
22.28000 193.000
22.32000 165.000
22.36000 160.000
22.40000 169.000
22.44000 163.000
22.48000 154.000
22.52000 176.000
22.56000 168.000
22.60000 184.000
22.64000 160.000
22.68000 176.000
22.72000 152.000
22.76000 177.000
22.80000 176.000
22.84000 151.000
22.88000 168.000
22.92000 187.000
22.96000 170.000
23.00000 165.000
23.04000 156.000
23.08000 178.000
23.12000 154.000
23.16000 175.000
23.20000 186.000
23.24000 182.000
23.28000 176.000
23.32000 165.000
23.36000 195.000
23.40000 176.000
23.44000 182.000
23.48000 214.000
23.52000 201.000
23.56000 194.000
23.60000 238.000
23.64000 267.000
23.68000 280.000
23.72000 315.000
23.76000 359.000
23.80000 418.000
23.84000 485.000
23.88000 552.000
23.92000 649.000
23.96000 744.000
24.00000 811.000
24.04000 898.000
24.08000 913.000
24.12000 989.000
24.16000 1035.000
24.20000 956.000
24.24000 805.000
24.28000 662.000
24.32000 517.000
24.36000 442.000
24.40000 373.000
24.44000 303.000
24.48000 300.000
24.52000 314.000
24.56000 278.000
24.60000 233.000
24.64000 222.000
24.68000 240.000
24.72000 203.000
24.76000 211.000
24.80000 224.000
24.84000 207.000
24.88000 185.000
24.92000 184.000
24.96000 213.000
25.00000 207.000
25.04000 186.000
25.08000 208.000
25.12000 199.000
25.16000 192.000
25.20000 188.000
25.24000 200.000
25.28000 167.000
25.32000 181.000
25.36000 171.000
25.40000 198.000
25.44000 200.000
25.48000 194.000
25.52000 203.000
25.56000 202.000
25.60000 162.000
25.64000 190.000
25.68000 191.000
25.72000 184.000
25.76000 182.000
25.80000 191.000
25.84000 187.000
25.88000 179.000
25.92000 165.000
25.96000 197.000
26.00000 185.000
26.04000 180.000
26.08000 206.000
26.12000 191.000
26.16000 188.000
26.20000 197.000
26.24000 218.000
26.28000 225.000
26.32000 227.000
26.36000 216.000
26.40000 205.000
26.44000 196.000
26.48000 208.000
26.52000 226.000
26.56000 225.000
26.60000 236.000
26.64000 272.000
26.68000 270.000
26.72000 276.000
26.76000 289.000
26.80000 237.000
26.84000 271.000
26.88000 304.000
26.92000 277.000
26.96000 304.000
27.00000 296.000
27.04000 290.000
27.08000 302.000
27.12000 299.000
27.16000 297.000
27.20000 309.000
27.24000 337.000
27.28000 370.000
27.32000 363.000
27.36000 401.000
27.40000 428.000
27.44000 459.000
27.48000 470.000
27.52000 526.000
27.56000 566.000
27.60000 628.000
27.64000 704.000
27.68000 748.000
27.72000 864.000
27.76000 1005.000
27.80000 1135.000
27.84000 1447.000
27.88000 1638.000
27.92000 2007.000
27.96000 2317.000
28.00000 2610.000
28.04000 2406.000
28.08000 2253.000
28.12000 1858.000
28.16000 1368.000
28.20000 1099.000
28.24000 923.000
28.28000 773.000
28.32000 666.000
28.36000 623.000
28.40000 516.000
28.44000 490.000
28.48000 446.000
28.52000 396.000
28.56000 389.000
28.60000 360.000
28.64000 366.000
28.68000 308.000
28.72000 329.000
28.76000 324.000
28.80000 258.000
28.84000 257.000
28.88000 270.000
28.92000 238.000
28.96000 205.000
29.00000 228.000
29.04000 232.000
29.08000 187.000
29.12000 204.000
29.16000 214.000
29.20000 213.000
29.24000 195.000
29.28000 199.000
29.32000 177.000
29.36000 213.000
29.40000 201.000
29.44000 183.000
29.48000 194.000
29.52000 182.000
29.56000 164.000
29.60000 163.000
29.64000 163.000
29.68000 182.000
29.72000 176.000
29.76000 172.000
29.80000 179.000
29.84000 180.000
29.88000 168.000
29.92000 172.000
29.96000 192.000
30.00000 182.000
30.04000 163.000
30.08000 152.000
30.12000 163.000
30.16000 174.000
30.20000 173.000
30.24000 196.000
30.28000 180.000
30.32000 159.000
30.36000 167.000
30.40000 158.000
30.44000 172.000
30.48000 154.000
30.52000 178.000
30.56000 166.000
30.60000 186.000
30.64000 184.000
30.68000 188.000
30.72000 185.000
30.76000 201.000
30.80000 196.000
30.84000 249.000
30.88000 293.000
30.92000 309.000
30.96000 377.000
31.00000 468.000
31.04000 612.000
31.08000 821.000
31.12000 1038.000
31.16000 1318.000
31.20000 1594.000
31.24000 1912.000
31.28000 1973.000
31.32000 2007.000
31.36000 1938.000
31.40000 1701.000
31.44000 1417.000
31.48000 1133.000
31.52000 831.000
31.56000 674.000
31.60000 495.000
31.64000 379.000
31.68000 314.000
31.72000 280.000
31.76000 260.000
31.80000 198.000
31.84000 199.000
31.88000 193.000
31.92000 203.000
31.96000 156.000
32.00000 171.000
32.04000 165.000
32.08000 172.000
32.12000 144.000
32.16000 140.000
32.20000 142.000
32.24000 151.000
32.28000 146.000
32.32000 128.000
32.36000 122.000
32.40000 137.000
32.44000 130.000
32.48000 121.000
32.52000 139.000
32.56000 114.000
32.60000 141.000
32.64000 118.000
32.68000 108.000
32.72000 111.000
32.76000 109.000
32.80000 108.000
32.84000 104.000
32.88000 113.000
32.92000 119.000
32.96000 103.000
33.00000 135.000
33.04000 122.000
33.08000 116.000
33.12000 100.000
33.16000 115.000
33.20000 120.000
33.24000 121.000
33.28000 111.000
33.32000 98.000
33.36000 112.000
33.40000 110.000
33.44000 100.000
33.48000 99.000
33.52000 109.000
33.56000 111.000
33.60000 107.000
33.64000 104.000
33.68000 105.000
33.72000 91.000
33.76000 113.000
33.80000 109.000
33.84000 107.000
33.88000 114.000
33.92000 113.000
33.96000 108.000
34.00000 113.000
34.04000 123.000
34.08000 122.000
34.12000 118.000
34.16000 151.000
34.20000 131.000
34.24000 150.000
34.28000 158.000
34.32000 163.000
34.36000 185.000
34.40000 222.000
34.44000 246.000
34.48000 238.000
34.52000 264.000
34.56000 246.000
34.60000 229.000
34.64000 201.000
34.68000 179.000
34.72000 152.000
34.76000 137.000
34.80000 129.000
34.84000 123.000
34.88000 151.000
34.92000 111.000
34.96000 112.000
35.00000 131.000
35.04000 119.000
35.08000 123.000
35.12000 103.000
35.16000 101.000
35.20000 94.000
35.24000 117.000
35.28000 103.000
35.32000 97.000
35.36000 99.000
35.40000 122.000
35.44000 92.000
35.48000 115.000
35.52000 92.000
35.56000 100.000
35.60000 128.000
35.64000 94.000
35.68000 102.000
35.72000 100.000
35.76000 93.000
35.80000 95.000
35.84000 87.000
35.88000 105.000
35.92000 81.000
35.96000 111.000
36.00000 95.000
36.04000 100.000
36.08000 112.000
36.12000 104.000
36.16000 101.000
36.20000 91.000
36.24000 96.000
36.28000 83.000
36.32000 110.000
36.36000 80.000
36.40000 88.000
36.44000 105.000
36.48000 80.000
36.52000 86.000
36.56000 92.000
36.60000 100.000
36.64000 102.000
36.68000 101.000
36.72000 103.000
36.76000 110.000
36.80000 95.000
36.84000 100.000
36.88000 106.000
36.92000 106.000
36.96000 98.000
37.00000 82.000
37.04000 104.000
37.08000 82.000
37.12000 101.000
37.16000 99.000
37.20000 102.000
37.24000 101.000
37.28000 94.000
37.32000 89.000
37.36000 86.000
37.40000 114.000
37.44000 98.000
37.48000 104.000
37.52000 104.000
37.56000 94.000
37.60000 102.000
37.64000 105.000
37.68000 108.000
37.72000 82.000
37.76000 103.000
37.80000 110.000
37.84000 96.000
37.88000 126.000
37.92000 103.000
37.96000 112.000
38.00000 109.000
38.04000 117.000
38.08000 107.000
38.12000 115.000
38.16000 108.000
38.20000 119.000
38.24000 115.000
38.28000 109.000
38.32000 126.000
38.36000 114.000
38.40000 113.000
38.44000 122.000
38.48000 131.000
38.52000 121.000
38.56000 127.000
38.60000 118.000
38.64000 121.000
38.68000 135.000
38.72000 119.000
38.76000 140.000
38.80000 114.000
38.84000 107.000
38.88000 135.000
38.92000 128.000
38.96000 153.000
39.00000 123.000
39.04000 163.000
39.08000 151.000
39.12000 157.000
39.16000 149.000
39.20000 159.000
39.24000 143.000
39.28000 161.000
39.32000 172.000
39.36000 188.000
39.40000 182.000
39.44000 195.000
39.48000 173.000
39.52000 205.000
39.56000 208.000
39.60000 254.000
39.64000 233.000
39.68000 247.000
39.72000 279.000
39.76000 317.000
39.80000 363.000
39.84000 361.000
39.88000 470.000
39.92000 553.000
39.96000 635.000
40.00000 748.000
40.04000 855.000
40.08000 858.000
40.12000 781.000
40.16000 730.000
40.20000 561.000
40.24000 501.000
40.28000 368.000
40.32000 359.000
40.36000 290.000
40.40000 217.000
40.44000 220.000
40.48000 216.000
40.52000 179.000
40.56000 185.000
40.60000 171.000
40.64000 188.000
40.68000 198.000
40.72000 165.000
40.76000 158.000
40.80000 160.000
40.84000 149.000
40.88000 158.000
40.92000 136.000
40.96000 140.000
41.00000 122.000
41.04000 158.000
41.08000 115.000
41.12000 134.000
41.16000 134.000
41.20000 135.000
41.24000 144.000
41.28000 145.000
41.32000 133.000
41.36000 139.000
41.40000 134.000
41.44000 124.000
41.48000 125.000
41.52000 119.000
41.56000 108.000
41.60000 146.000
41.64000 147.000
41.68000 130.000
41.72000 143.000
41.76000 133.000
41.80000 131.000
41.84000 142.000
41.88000 153.000
41.92000 144.000
41.96000 160.000
42.00000 168.000
42.04000 161.000
42.08000 170.000
42.12000 161.000
42.16000 177.000
42.20000 201.000
42.24000 235.000
42.28000 294.000
42.32000 299.000
42.36000 372.000
42.40000 463.000
42.44000 535.000
42.48000 656.000
42.52000 703.000
42.56000 732.000
42.60000 741.000
42.64000 703.000
42.68000 602.000
42.72000 484.000
42.76000 408.000
42.80000 327.000
42.84000 284.000
42.88000 219.000
42.92000 226.000
42.96000 167.000
43.00000 172.000
43.04000 154.000
43.08000 149.000
43.12000 160.000
43.16000 142.000
43.20000 128.000
43.24000 137.000
43.28000 128.000
43.32000 129.000
43.36000 127.000
43.40000 116.000
43.44000 114.000
43.48000 110.000
43.52000 135.000
43.56000 103.000
43.60000 106.000
43.64000 102.000
43.68000 110.000
43.72000 116.000
43.76000 124.000
43.80000 98.000
43.84000 87.000
43.88000 101.000
43.92000 80.000
43.96000 104.000
44.00000 87.000
44.04000 119.000
44.08000 98.000
44.12000 114.000
44.16000 101.000
44.20000 98.000
44.24000 104.000
44.28000 102.000
44.32000 71.000
44.36000 90.000
44.40000 84.000
44.44000 100.000
44.48000 87.000
44.52000 89.000
44.56000 90.000
44.60000 103.000
44.64000 96.000
44.68000 93.000
44.72000 77.000
44.76000 99.000
44.80000 110.000
44.84000 92.000
44.88000 106.000
44.92000 80.000
44.96000 89.000
45.00000 105.000
45.04000 104.000
45.08000 104.000
45.12000 103.000
45.16000 84.000
45.20000 103.000
45.24000 84.000
45.28000 87.000
45.32000 79.000
45.36000 100.000
45.40000 94.000
45.44000 98.000
45.48000 79.000
45.52000 89.000
45.56000 72.000
45.60000 82.000
45.64000 77.000
45.68000 83.000
45.72000 86.000
45.76000 85.000
45.80000 70.000
45.84000 94.000
45.88000 71.000
45.92000 71.000
45.96000 80.000
46.00000 77.000
46.04000 84.000
46.08000 74.000
46.12000 85.000
46.16000 78.000
46.20000 63.000
46.24000 73.000
46.28000 84.000
46.32000 90.000
46.36000 70.000
46.40000 78.000
46.44000 65.000
46.48000 76.000
46.52000 71.000
46.56000 70.000
46.60000 83.000
46.64000 75.000
46.68000 73.000
46.72000 75.000
46.76000 94.000
46.80000 76.000
46.84000 70.000
46.88000 71.000
46.92000 91.000
46.96000 72.000
47.00000 78.000
47.04000 76.000
47.08000 87.000
47.12000 94.000
47.16000 105.000
47.20000 86.000
47.24000 114.000
47.28000 103.000
47.32000 104.000
47.36000 112.000
47.40000 106.000
47.44000 96.000
47.48000 87.000
47.52000 64.000
47.56000 80.000
47.60000 95.000
47.64000 84.000
47.68000 59.000
47.72000 75.000
47.76000 66.000
47.80000 65.000
47.84000 70.000
47.88000 67.000
47.92000 72.000
47.96000 73.000
48.00000 76.000
48.04000 74.000
48.08000 79.000
48.12000 89.000
48.16000 85.000
48.20000 85.000
48.24000 83.000
48.28000 68.000
48.32000 61.000
48.36000 77.000
48.40000 71.000
48.44000 78.000
48.48000 88.000
48.52000 77.000
48.56000 89.000
48.60000 78.000
48.64000 64.000
48.68000 89.000
48.72000 69.000
48.76000 92.000
48.80000 92.000
48.84000 104.000
48.88000 110.000
48.92000 122.000
48.96000 115.000
49.00000 105.000
49.04000 114.000
49.08000 117.000
49.12000 125.000
49.16000 123.000
49.20000 132.000
49.24000 116.000
49.28000 148.000
49.32000 149.000
49.36000 136.000
49.40000 159.000
49.44000 189.000
49.48000 172.000
49.52000 175.000
49.56000 203.000
49.60000 177.000
49.64000 214.000
49.68000 192.000
49.72000 200.000
49.76000 138.000
49.80000 130.000
49.84000 119.000
49.88000 104.000
49.92000 101.000
49.96000 110.000
50.00000 82.000
50.04000 103.000
50.08000 92.000
50.12000 99.000
50.16000 90.000
50.20000 90.000
50.24000 86.000
50.28000 71.000
50.32000 86.000
50.36000 90.000
50.40000 72.000
50.44000 92.000
50.48000 69.000
50.52000 75.000
50.56000 69.000
50.60000 75.000
50.64000 74.000
50.68000 76.000
50.72000 93.000
50.76000 69.000
50.80000 75.000
50.84000 77.000
50.88000 79.000
50.92000 83.000
50.96000 90.000
51.00000 88.000
51.04000 74.000
51.08000 66.000
51.12000 67.000
51.16000 72.000
51.20000 86.000
51.24000 96.000
51.28000 76.000
51.32000 94.000
51.36000 90.000
51.40000 92.000
51.44000 119.000
51.48000 98.000
51.52000 126.000
51.56000 127.000
51.60000 136.000
51.64000 151.000
51.68000 171.000
51.72000 213.000
51.76000 184.000
51.80000 183.000
51.84000 214.000
51.88000 178.000
51.92000 140.000
51.96000 135.000
52.00000 154.000
52.04000 116.000
52.08000 92.000
52.12000 95.000
52.16000 88.000
52.20000 84.000
52.24000 86.000
52.28000 82.000
52.32000 90.000
52.36000 64.000
52.40000 73.000
52.44000 78.000
52.48000 79.000
52.52000 75.000
52.56000 60.000
52.60000 60.000
52.64000 73.000
52.68000 67.000
52.72000 60.000
52.76000 66.000
52.80000 54.000
52.84000 81.000
52.88000 68.000
52.92000 68.000
52.96000 74.000
53.00000 71.000
53.04000 71.000
53.08000 67.000
53.12000 67.000
53.16000 80.000
53.20000 75.000
53.24000 64.000
53.28000 82.000
53.32000 61.000
53.36000 63.000
53.40000 71.000
53.44000 78.000
53.48000 76.000
53.52000 60.000
53.56000 70.000
53.60000 79.000
53.64000 82.000
53.68000 74.000
53.72000 95.000
53.76000 76.000
53.80000 85.000
53.84000 72.000
53.88000 91.000
53.92000 96.000
53.96000 90.000
54.00000 88.000
54.04000 85.000
54.08000 79.000
54.12000 75.000
54.16000 79.000
54.20000 82.000
54.24000 80.000
54.28000 63.000
54.32000 67.000
54.36000 62.000
54.40000 55.000
54.44000 64.000
54.48000 57.000
54.52000 72.000
54.56000 71.000
54.60000 56.000
54.64000 65.000
54.68000 57.000
54.72000 53.000
54.76000 51.000
54.80000 48.000
54.84000 60.000
54.88000 59.000
54.92000 58.000
54.96000 59.000
55.00000 62.000
55.04000 62.000
55.08000 59.000
55.12000 47.000
55.16000 53.000
55.20000 65.000
55.24000 48.000
55.28000 63.000
55.32000 51.000
55.36000 59.000
55.40000 62.000
55.44000 61.000
55.48000 72.000
55.52000 61.000
55.56000 60.000
55.60000 50.000
55.64000 40.000
55.68000 54.000
55.72000 54.000
55.76000 62.000
55.80000 56.000
55.84000 66.000
55.88000 57.000
55.92000 61.000
55.96000 52.000
56.00000 53.000
56.04000 60.000
56.08000 55.000
56.12000 50.000
56.16000 58.000
56.20000 64.000
56.24000 61.000
56.28000 52.000
56.32000 58.000
56.36000 55.000
56.40000 59.000
56.44000 54.000
56.48000 52.000
56.52000 58.000
56.56000 61.000
56.60000 58.000
56.64000 53.000
56.68000 62.000
56.72000 59.000
56.76000 67.000
56.80000 67.000
56.84000 69.000
56.88000 64.000
56.92000 55.000
56.96000 63.000
57.00000 62.000
57.04000 57.000
57.08000 48.000
57.12000 72.000
57.16000 59.000
57.20000 83.000
57.24000 76.000
57.28000 56.000
57.32000 68.000
57.36000 71.000
57.40000 70.000
57.44000 55.000
57.48000 73.000
57.52000 63.000
57.56000 81.000
57.60000 70.000
57.64000 70.000
57.68000 71.000
57.72000 88.000
57.76000 80.000
57.80000 84.000
57.84000 83.000
57.88000 94.000
57.92000 124.000
57.96000 106.000
58.00000 106.000
58.04000 108.000
58.08000 104.000
58.12000 101.000
58.16000 82.000
58.20000 86.000
58.24000 64.000
58.28000 66.000
58.32000 77.000
58.36000 83.000
58.40000 86.000
58.44000 80.000
58.48000 70.000
58.52000 82.000
58.56000 73.000
58.60000 92.000
58.64000 78.000
58.68000 71.000
58.72000 61.000
58.76000 61.000
58.80000 62.000
58.84000 67.000
58.88000 74.000
58.92000 51.000
58.96000 79.000
59.00000 68.000
59.04000 80.000
59.08000 67.000
59.12000 72.000
59.16000 72.000
59.20000 63.000
59.24000 70.000
59.28000 69.000
59.32000 77.000
59.36000 78.000
59.40000 71.000
59.44000 91.000
59.48000 79.000
59.52000 96.000
59.56000 94.000
59.60000 111.000
59.64000 108.000
59.68000 121.000
59.72000 112.000
59.76000 141.000
59.80000 176.000
59.84000 250.000
59.88000 224.000
59.92000 256.000