File: XRD/10.xy
5.00000 672.000
5.04000 733.000
5.08000 700.000
5.12000 678.000
5.16000 636.000
5.20000 638.000
5.24000 638.000
5.28000 686.000
5.32000 617.000
5.36000 633.000
5.40000 627.000
5.44000 623.000
5.48000 641.000
5.52000 594.000
5.56000 616.000
5.60000 569.000
5.64000 589.000
5.68000 601.000
5.72000 607.000
5.76000 574.000
5.80000 635.000
5.84000 606.000
5.88000 527.000
5.92000 620.000
5.96000 551.000
6.00000 535.000
6.04000 550.000
6.08000 544.000
6.12000 533.000
6.16000 530.000
6.20000 494.000
6.24000 490.000
6.28000 542.000
6.32000 503.000
6.36000 528.000
6.40000 529.000
6.44000 503.000
6.48000 447.000
6.52000 513.000
6.56000 474.000
6.60000 529.000
6.64000 435.000
6.68000 472.000
6.72000 501.000
6.76000 493.000
6.80000 493.000
6.84000 452.000
6.88000 478.000
6.92000 421.000
6.96000 438.000
7.00000 450.000
7.04000 440.000
7.08000 410.000
7.12000 479.000
7.16000 428.000
7.20000 444.000
7.24000 398.000
7.28000 433.000
7.32000 394.000
7.36000 418.000
7.40000 429.000
7.44000 430.000
7.48000 431.000
7.52000 376.000
7.56000 438.000
7.60000 401.000
7.64000 409.000
7.68000 400.000
7.72000 413.000
7.76000 383.000
7.80000 415.000
7.84000 410.000
7.88000 421.000
7.92000 419.000
7.96000 336.000
8.00000 406.000
8.04000 360.000
8.08000 400.000
8.12000 385.000
8.16000 366.000
8.20000 381.000
8.24000 381.000
8.28000 383.000
8.32000 380.000
8.36000 354.000
8.40000 393.000
8.44000 356.000
8.48000 350.000
8.52000 365.000
8.56000 364.000
8.60000 342.000
8.64000 358.000
8.68000 327.000
8.72000 345.000
8.76000 351.000
8.80000 337.000
8.84000 339.000
8.88000 337.000
8.92000 364.000
8.96000 346.000
9.00000 326.000
9.04000 351.000
9.08000 288.000
9.12000 350.000
9.16000 341.000
9.20000 334.000
9.24000 333.000
9.28000 348.000
9.32000 341.000
9.36000 336.000
9.40000 328.000
9.44000 318.000
9.48000 342.000
9.52000 333.000
9.56000 329.000
9.60000 316.000
9.64000 300.000
9.68000 312.000
9.72000 328.000
9.76000 306.000
9.80000 282.000
9.84000 306.000
9.88000 334.000
9.92000 338.000
9.96000 359.000
10.00000 316.000
10.04000 329.000
10.08000 303.000
10.12000 282.000
10.16000 277.000
10.20000 310.000
10.24000 314.000
10.28000 340.000
10.32000 276.000
10.36000 293.000
10.40000 310.000
10.44000 290.000
10.48000 304.000
10.52000 312.000
10.56000 276.000
10.60000 307.000
10.64000 275.000
10.68000 302.000
10.72000 281.000
10.76000 282.000
10.80000 273.000
10.84000 281.000
10.88000 327.000
10.92000 279.000
10.96000 265.000
11.00000 306.000
11.04000 271.000
11.08000 307.000
11.12000 288.000
11.16000 289.000
11.20000 291.000
11.24000 304.000
11.28000 284.000
11.32000 255.000
11.36000 300.000
11.40000 271.000
11.44000 243.000
11.48000 276.000
11.52000 298.000
11.56000 280.000
11.60000 309.000
11.64000 288.000
11.68000 300.000
11.72000 299.000
11.76000 288.000
11.80000 266.000
11.84000 297.000
11.88000 286.000
11.92000 272.000
11.96000 309.000
12.00000 307.000
12.04000 310.000
12.08000 311.000
12.12000 293.000
12.16000 272.000
12.20000 323.000
12.24000 284.000
12.28000 292.000
12.32000 323.000
12.36000 311.000
12.40000 302.000
12.44000 322.000
12.48000 284.000
12.52000 292.000
12.56000 296.000
12.60000 324.000
12.64000 293.000
12.68000 287.000
12.72000 294.000
12.76000 320.000
12.80000 289.000
12.84000 360.000
12.88000 319.000
12.92000 321.000
12.96000 301.000
13.00000 341.000
13.04000 343.000
13.08000 355.000
13.12000 351.000
13.16000 328.000
13.20000 362.000
13.24000 343.000
13.28000 362.000
13.32000 358.000
13.36000 372.000
13.40000 347.000
13.44000 357.000
13.48000 377.000
13.52000 360.000
13.56000 368.000
13.60000 356.000
13.64000 366.000
13.68000 366.000
13.72000 433.000
13.76000 410.000
13.80000 415.000
13.84000 375.000
13.88000 410.000
13.92000 395.000
13.96000 453.000
14.00000 434.000
14.04000 495.000
14.08000 503.000
14.12000 513.000
14.16000 496.000
14.20000 548.000
14.24000 543.000
14.28000 600.000
14.32000 581.000
14.36000 698.000
14.40000 681.000
14.44000 803.000
14.48000 870.000
14.52000 980.000
14.56000 1166.000
14.60000 1469.000
14.64000 1780.000
14.68000 2431.000
14.72000 3349.000
14.76000 4564.000
14.80000 5489.000
14.84000 4783.000
14.88000 3511.000
14.92000 2404.000
14.96000 1682.000
15.00000 1298.000
15.04000 1109.000
15.08000 891.000
15.12000 776.000
15.16000 663.000
15.20000 639.000
15.24000 613.000
15.28000 596.000
15.32000 525.000
15.36000 499.000
15.40000 458.000
15.44000 446.000
15.48000 410.000
15.52000 382.000
15.56000 390.000
15.60000 380.000
15.64000 362.000
15.68000 349.000
15.72000 389.000
15.76000 312.000
15.80000 310.000
15.84000 311.000
15.88000 343.000
15.92000 310.000
15.96000 304.000
16.00000 294.000
16.04000 309.000
16.08000 275.000
16.12000 327.000
16.16000 305.000
16.20000 328.000
16.24000 278.000
16.28000 267.000
16.32000 266.000
16.36000 288.000
16.40000 227.000
16.44000 268.000
16.48000 255.000
16.52000 267.000
16.56000 256.000
16.60000 271.000
16.64000 273.000
16.68000 219.000
16.72000 249.000
16.76000 226.000
16.80000 249.000
16.84000 242.000
16.88000 243.000
16.92000 244.000
16.96000 229.000
17.00000 247.000
17.04000 265.000
17.08000 228.000
17.12000 235.000
17.16000 264.000
17.20000 228.000
17.24000 221.000
17.28000 250.000
17.32000 226.000
17.36000 242.000
17.40000 229.000
17.44000 245.000
17.48000 230.000
17.52000 226.000
17.56000 249.000
17.60000 246.000
17.64000 237.000
17.68000 238.000
17.72000 221.000
17.76000 245.000
17.80000 236.000
17.84000 221.000
17.88000 252.000
17.92000 263.000
17.96000 235.000
18.00000 218.000
18.04000 225.000
18.08000 221.000
18.12000 244.000
18.16000 249.000
18.20000 264.000
18.24000 243.000
18.28000 227.000
18.32000 245.000
18.36000 233.000
18.40000 227.000
18.44000 225.000
18.48000 229.000
18.52000 235.000
18.56000 219.000
18.60000 231.000
18.64000 250.000
18.68000 239.000
18.72000 260.000
18.76000 257.000
18.80000 234.000
18.84000 233.000
18.88000 264.000
18.92000 250.000
18.96000 247.000
19.00000 251.000
19.04000 215.000
19.08000 259.000
19.12000 219.000
19.16000 234.000
19.20000 248.000
19.24000 240.000
19.28000 224.000
19.32000 244.000
19.36000 241.000
19.40000 242.000
19.44000 211.000
19.48000 233.000
19.52000 255.000
19.56000 234.000
19.60000 238.000
19.64000 248.000
19.68000 233.000
19.72000 247.000
19.76000 258.000
19.80000 232.000
19.84000 247.000
19.88000 245.000
19.92000 241.000
19.96000 225.000
20.00000 224.000
20.04000 257.000
20.08000 237.000
20.12000 241.000
20.16000 238.000
20.20000 252.000
20.24000 247.000
20.28000 239.000
20.32000 242.000
20.36000 240.000
20.40000 238.000
20.44000 263.000
20.48000 232.000
20.52000 274.000
20.56000 236.000
20.60000 263.000
20.64000 243.000
20.68000 273.000
20.72000 247.000
20.76000 308.000
20.80000 296.000
20.84000 343.000
20.88000 287.000
20.92000 363.000
20.96000 389.000
21.00000 460.000
21.04000 420.000
21.08000 319.000
21.12000 296.000
21.16000 288.000
21.20000 254.000
21.24000 239.000
21.28000 263.000
21.32000 264.000
21.36000 272.000
21.40000 245.000
21.44000 230.000
21.48000 280.000
21.52000 259.000
21.56000 261.000
21.60000 221.000
21.64000 263.000
21.68000 254.000
21.72000 275.000
21.76000 238.000
21.80000 228.000
21.84000 255.000
21.88000 259.000
21.92000 255.000
21.96000 256.000
22.00000 259.000
22.04000 254.000
22.08000 250.000
22.12000 239.000
22.16000 243.000
22.20000 262.000
22.24000 257.000
22.28000 222.000
22.32000 255.000
22.36000 238.000
22.40000 272.000
22.44000 251.000
22.48000 237.000
22.52000 213.000
22.56000 265.000
22.60000 205.000
22.64000 250.000
22.68000 241.000
22.72000 255.000
22.76000 225.000
22.80000 240.000
22.84000 241.000
22.88000 253.000
22.92000 235.000
22.96000 234.000
23.00000 246.000
23.04000 256.000
23.08000 244.000
23.12000 235.000
23.16000 253.000
23.20000 264.000
23.24000 224.000
23.28000 240.000
23.32000 225.000
23.36000 257.000
23.40000 229.000
23.44000 257.000
23.48000 275.000
23.52000 257.000
23.56000 216.000
23.60000 246.000
23.64000 225.000
23.68000 231.000
23.72000 251.000
23.76000 235.000
23.80000 229.000
23.84000 247.000
23.88000 238.000
23.92000 230.000
23.96000 213.000
24.00000 255.000
24.04000 238.000
24.08000 250.000
24.12000 253.000
24.16000 231.000
24.20000 236.000
24.24000 252.000
24.28000 229.000
24.32000 238.000
24.36000 261.000
24.40000 256.000
24.44000 244.000
24.48000 245.000
24.52000 224.000
24.56000 245.000
24.60000 236.000
24.64000 223.000
24.68000 251.000
24.72000 245.000
24.76000 243.000
24.80000 230.000
24.84000 248.000
24.88000 228.000
24.92000 231.000
24.96000 224.000
25.00000 235.000
25.04000 227.000
25.08000 245.000
25.12000 242.000
25.16000 252.000
25.20000 207.000
25.24000 251.000
25.28000 232.000
25.32000 248.000
25.36000 219.000
25.40000 226.000
25.44000 252.000
25.48000 229.000
25.52000 233.000
25.56000 238.000
25.60000 228.000
25.64000 224.000
25.68000 244.000
25.72000 243.000
25.76000 250.000
25.80000 240.000
25.84000 225.000
25.88000 221.000
25.92000 227.000
25.96000 239.000
26.00000 227.000
26.04000 200.000
26.08000 240.000
26.12000 183.000
26.16000 222.000
26.20000 203.000
26.24000 193.000
26.28000 220.000
26.32000 231.000
26.36000 216.000
26.40000 231.000
26.44000 218.000
26.48000 247.000
26.52000 196.000
26.56000 231.000
26.60000 223.000
26.64000 255.000
26.68000 218.000
26.72000 226.000
26.76000 231.000
26.80000 233.000
26.84000 200.000
26.88000 235.000
26.92000 228.000
26.96000 237.000
27.00000 198.000
27.04000 218.000
27.08000 200.000
27.12000 217.000
27.16000 227.000
27.20000 215.000
27.24000 231.000
27.28000 230.000
27.32000 232.000
27.36000 231.000
27.40000 214.000
27.44000 205.000
27.48000 191.000
27.52000 244.000
27.56000 221.000
27.60000 238.000
27.64000 203.000
27.68000 224.000
27.72000 254.000
27.76000 227.000
27.80000 231.000
27.84000 204.000
27.88000 175.000
27.92000 197.000
27.96000 187.000
28.00000 207.000
28.04000 237.000
28.08000 194.000
28.12000 225.000
28.16000 211.000
28.20000 204.000
28.24000 212.000
28.28000 207.000
28.32000 221.000
28.36000 214.000
28.40000 215.000
28.44000 209.000
28.48000 198.000
28.52000 210.000
28.56000 236.000
28.60000 214.000
28.64000 208.000
28.68000 239.000
28.72000 236.000
28.76000 230.000
28.80000 230.000
28.84000 201.000
28.88000 237.000
28.92000 194.000
28.96000 212.000
29.00000 182.000
29.04000 250.000
29.08000 203.000
29.12000 217.000
29.16000 216.000
29.20000 209.000
29.24000 225.000
29.28000 222.000
29.32000 208.000
29.36000 229.000
29.40000 212.000
29.44000 217.000
29.48000 212.000
29.52000 231.000
29.56000 256.000
29.60000 244.000
29.64000 253.000
29.68000 296.000
29.72000 321.000
29.76000 362.000
29.80000 442.000
29.84000 526.000
29.88000 519.000
29.92000 550.000
29.96000 471.000
30.00000 391.000
30.04000 303.000
30.08000 256.000
30.12000 240.000
30.16000 214.000
30.20000 208.000
30.24000 232.000
30.28000 200.000
30.32000 214.000
30.36000 222.000
30.40000 229.000
30.44000 212.000
30.48000 188.000
30.52000 191.000
30.56000 200.000
30.60000 229.000
30.64000 205.000
30.68000 216.000
30.72000 208.000
30.76000 219.000
30.80000 224.000
30.84000 197.000
30.88000 222.000
30.92000 223.000
30.96000 204.000
31.00000 212.000
31.04000 241.000
31.08000 226.000
31.12000 218.000
31.16000 280.000
31.20000 245.000
31.24000 231.000
31.28000 233.000
31.32000 231.000
31.36000 213.000
31.40000 209.000
31.44000 204.000
31.48000 197.000
31.52000 183.000
31.56000 209.000
31.60000 181.000
31.64000 200.000
31.68000 202.000
31.72000 174.000
31.76000 216.000
31.80000 190.000
31.84000 166.000
31.88000 166.000
31.92000 164.000
31.96000 185.000
32.00000 163.000
32.04000 186.000
32.08000 158.000
32.12000 170.000
32.16000 196.000
32.20000 173.000
32.24000 173.000
32.28000 167.000
32.32000 145.000
32.36000 159.000
32.40000 151.000
32.44000 138.000
32.48000 172.000
32.52000 172.000
32.56000 154.000
32.60000 162.000
32.64000 157.000
32.68000 156.000
32.72000 161.000
32.76000 147.000
32.80000 173.000
32.84000 151.000
32.88000 147.000
32.92000 151.000
32.96000 140.000
33.00000 142.000
33.04000 139.000
33.08000 167.000
33.12000 149.000
33.16000 156.000
33.20000 170.000
33.24000 188.000
33.28000 195.000
33.32000 187.000
33.36000 201.000
33.40000 254.000
33.44000 286.000
33.48000 319.000
33.52000 373.000
33.56000 357.000
33.60000 280.000
33.64000 226.000
33.68000 199.000
33.72000 185.000
33.76000 143.000
33.80000 165.000
33.84000 139.000
33.88000 141.000
33.92000 132.000
33.96000 148.000
34.00000 135.000
34.04000 131.000
34.08000 127.000
34.12000 121.000
34.16000 124.000
34.20000 128.000
34.24000 119.000
34.28000 120.000
34.32000 131.000
34.36000 135.000
34.40000 122.000
34.44000 113.000
34.48000 143.000
34.52000 98.000
34.56000 119.000
34.60000 133.000
34.64000 101.000
34.68000 100.000
34.72000 114.000
34.76000 122.000
34.80000 113.000
34.84000 128.000
34.88000 107.000
34.92000 112.000
34.96000 109.000
35.00000 128.000
35.04000 108.000
35.08000 105.000
35.12000 116.000
35.16000 128.000
35.20000 115.000
35.24000 127.000
35.28000 110.000
35.32000 108.000
35.36000 102.000
35.40000 102.000
35.44000 123.000
35.48000 110.000
35.52000 89.000
35.56000 104.000
35.60000 130.000
35.64000 94.000
35.68000 105.000
35.72000 85.000
35.76000 93.000
35.80000 103.000
35.84000 102.000
35.88000 81.000
35.92000 89.000
35.96000 122.000
36.00000 120.000
36.04000 109.000
36.08000 103.000
36.12000 100.000
36.16000 114.000
36.20000 117.000
36.24000 102.000
36.28000 107.000
36.32000 93.000
36.36000 97.000
36.40000 121.000
36.44000 109.000
36.48000 96.000
36.52000 102.000
36.56000 92.000
36.60000 133.000
36.64000 132.000
36.68000 107.000
36.72000 120.000
36.76000 147.000
36.80000 162.000
36.84000 174.000
36.88000 123.000
36.92000 142.000
36.96000 128.000
37.00000 111.000
37.04000 93.000
37.08000 110.000
37.12000 94.000
37.16000 81.000
37.20000 78.000
37.24000 85.000
37.28000 123.000
37.32000 81.000
37.36000 82.000
37.40000 87.000
37.44000 94.000
37.48000 81.000
37.52000 69.000
37.56000 69.000
37.60000 91.000
37.64000 97.000
37.68000 89.000
37.72000 81.000
37.76000 79.000
37.80000 90.000
37.84000 84.000
37.88000 104.000
37.92000 96.000
37.96000 81.000
38.00000 83.000
38.04000 85.000
38.08000 93.000
38.12000 86.000
38.16000 100.000
38.20000 83.000
38.24000 92.000
38.28000 93.000
38.32000 93.000
38.36000 81.000
38.40000 74.000
38.44000 77.000
38.48000 84.000
38.52000 70.000
38.56000 84.000
38.60000 70.000
38.64000 87.000
38.68000 77.000
38.72000 84.000
38.76000 81.000
38.80000 67.000
38.84000 95.000
38.88000 80.000
38.92000 75.000
38.96000 83.000
39.00000 85.000
39.04000 86.000
39.08000 72.000
39.12000 73.000
39.16000 74.000
39.20000 71.000
39.24000 66.000
39.28000 82.000
39.32000 81.000
39.36000 80.000
39.40000 84.000
39.44000 67.000
39.48000 111.000
39.52000 92.000
39.56000 69.000
39.60000 74.000
39.64000 77.000
39.68000 68.000
39.72000 73.000
39.76000 91.000
39.80000 94.000
39.84000 80.000
39.88000 69.000
39.92000 78.000
39.96000 79.000
40.00000 80.000
40.04000 70.000
40.08000 73.000
40.12000 65.000
40.16000 85.000
40.20000 66.000
40.24000 76.000
40.28000 72.000
40.32000 74.000
40.36000 91.000
40.40000 71.000
40.44000 78.000
40.48000 90.000
40.52000 67.000
40.56000 80.000
40.60000 69.000
40.64000 76.000
40.68000 67.000
40.72000 78.000
40.76000 79.000
40.80000 58.000
40.84000 87.000
40.88000 61.000
40.92000 69.000
40.96000 77.000
41.00000 82.000
41.04000 62.000
41.08000 64.000
41.12000 80.000
41.16000 74.000
41.20000 85.000
41.24000 76.000
41.28000 78.000
41.32000 67.000
41.36000 82.000
41.40000 72.000
41.44000 79.000
41.48000 93.000
41.52000 77.000
41.56000 85.000
41.60000 72.000
41.64000 72.000
41.68000 74.000
41.72000 71.000
41.76000 72.000
41.80000 71.000
41.84000 69.000
41.88000 71.000
41.92000 98.000
41.96000 81.000
42.00000 56.000
42.04000 66.000
42.08000 55.000
42.12000 73.000
42.16000 73.000
42.20000 58.000
42.24000 84.000
42.28000 83.000
42.32000 68.000
42.36000 69.000
42.40000 81.000
42.44000 69.000
42.48000 74.000
42.52000 100.000
42.56000 86.000
42.60000 93.000
42.64000 96.000
42.68000 117.000
42.72000 161.000
42.76000 172.000
42.80000 154.000
42.84000 161.000
42.88000 140.000
42.92000 123.000
42.96000 111.000
43.00000 95.000
43.04000 76.000
43.08000 81.000
43.12000 71.000
43.16000 74.000
43.20000 59.000
43.24000 65.000
43.28000 50.000
43.32000 66.000
43.36000 63.000
43.40000 67.000
43.44000 53.000
43.48000 66.000
43.52000 76.000
43.56000 65.000
43.60000 57.000
43.64000 65.000
43.68000 79.000
43.72000 52.000
43.76000 78.000
43.80000 73.000
43.84000 80.000
43.88000 71.000
43.92000 62.000
43.96000 53.000
44.00000 66.000
44.04000 63.000
44.08000 63.000
44.12000 82.000
44.16000 78.000
44.20000 68.000
44.24000 70.000
44.28000 63.000
44.32000 68.000
44.36000 72.000
44.40000 66.000
44.44000 65.000
44.48000 58.000
44.52000 65.000
44.56000 72.000
44.60000 67.000
44.64000 64.000
44.68000 70.000
44.72000 82.000
44.76000 77.000
44.80000 57.000
44.84000 66.000
44.88000 61.000
44.92000 59.000
44.96000 68.000
45.00000 70.000
45.04000 75.000
45.08000 76.000
45.12000 66.000
45.16000 69.000
45.20000 75.000
45.24000 91.000
45.28000 83.000
45.32000 79.000
45.36000 86.000
45.40000 97.000
45.44000 103.000
45.48000 97.000
45.52000 126.000
45.56000 135.000
45.60000 128.000
45.64000 108.000
45.68000 99.000
45.72000 94.000
45.76000 86.000
45.80000 75.000
45.84000 74.000
45.88000 57.000
45.92000 62.000
45.96000 64.000
46.00000 70.000
46.04000 62.000
46.08000 68.000
46.12000 75.000
46.16000 71.000
46.20000 84.000
46.24000 59.000
46.28000 72.000
46.32000 72.000
46.36000 75.000
46.40000 65.000
46.44000 71.000
46.48000 62.000
46.52000 71.000
46.56000 60.000
46.60000 66.000
46.64000 64.000
46.68000 76.000
46.72000 69.000
46.76000 65.000
46.80000 64.000
46.84000 66.000
46.88000 60.000
46.92000 59.000
46.96000 69.000
47.00000 60.000
47.04000 60.000
47.08000 70.000
47.12000 91.000
47.16000 76.000
47.20000 57.000
47.24000 62.000
47.28000 59.000
47.32000 52.000
47.36000 60.000
47.40000 63.000
47.44000 63.000
47.48000 59.000
47.52000 68.000
47.56000 75.000
47.60000 70.000
47.64000 64.000
47.68000 55.000
47.72000 55.000
47.76000 71.000
47.80000 69.000
47.84000 80.000
47.88000 59.000
47.92000 58.000
47.96000 79.000
48.00000 79.000
48.04000 68.000
48.08000 90.000
48.12000 104.000
48.16000 83.000
48.20000 83.000
48.24000 87.000
48.28000 92.000
48.32000 82.000
48.36000 81.000
48.40000 64.000
48.44000 70.000
48.48000 87.000
48.52000 80.000
48.56000 76.000
48.60000 59.000
48.64000 67.000
48.68000 81.000
48.72000 76.000
48.76000 63.000
48.80000 53.000
48.84000 60.000
48.88000 66.000
48.92000 62.000
48.96000 52.000
49.00000 69.000
49.04000 62.000
49.08000 62.000
49.12000 59.000
49.16000 61.000
49.20000 61.000
49.24000 81.000
49.28000 74.000
49.32000 76.000
49.36000 65.000
49.40000 72.000
49.44000 65.000
49.48000 65.000
49.52000 84.000
49.56000 66.000
49.60000 79.000
49.64000 79.000
49.68000 74.000
49.72000 61.000
49.76000 72.000
49.80000 62.000
49.84000 73.000
49.88000 62.000
49.92000 69.000
49.96000 67.000
50.00000 60.000
50.04000 74.000
50.08000 52.000
50.12000 62.000
50.16000 64.000
50.20000 76.000
50.24000 51.000
50.28000 64.000
50.32000 73.000
50.36000 84.000
50.40000 70.000
50.44000 95.000
50.48000 90.000
50.52000 101.000
50.56000 132.000
50.60000 128.000
50.64000 152.000
50.68000 159.000
50.72000 182.000
50.76000 137.000
50.80000 131.000
50.84000 128.000
50.88000 96.000
50.92000 89.000
50.96000 70.000
51.00000 92.000
51.04000 78.000
51.08000 66.000
51.12000 65.000
51.16000 70.000
51.20000 57.000
51.24000 83.000
51.28000 65.000
51.32000 68.000
51.36000 60.000
51.40000 51.000
51.44000 57.000
51.48000 66.000
51.52000 64.000
51.56000 59.000
51.60000 60.000
51.64000 63.000
51.68000 75.000
51.72000 65.000
51.76000 64.000
51.80000 68.000
51.84000 65.000
51.88000 73.000
51.92000 56.000
51.96000 69.000
52.00000 60.000
52.04000 60.000
52.08000 67.000
52.12000 78.000
52.16000 57.000
52.20000 49.000
52.24000 47.000
52.28000 50.000
52.32000 68.000
52.36000 69.000
52.40000 59.000
52.44000 60.000
52.48000 61.000
52.52000 53.000
52.56000 64.000
52.60000 50.000
52.64000 64.000
52.68000 64.000
52.72000 59.000
52.76000 74.000
52.80000 73.000
52.84000 73.000
52.88000 76.000
52.92000 81.000
52.96000 70.000
53.00000 76.000
53.04000 61.000
53.08000 69.000
53.12000 76.000
53.16000 80.000
53.20000 85.000
53.24000 78.000
53.28000 73.000
53.32000 54.000
53.36000 46.000
53.40000 60.000
53.44000 44.000
53.48000 61.000
53.52000 58.000
53.56000 55.000
53.60000 60.000
53.64000 62.000
53.68000 52.000
53.72000 87.000
53.76000 71.000
53.80000 58.000
53.84000 52.000
53.88000 61.000
53.92000 54.000
53.96000 57.000
54.00000 56.000
54.04000 59.000
54.08000 57.000
54.12000 65.000
54.16000 58.000
54.20000 81.000
54.24000 60.000
54.28000 77.000
54.32000 54.000
54.36000 62.000
54.40000 53.000
54.44000 66.000
54.48000 55.000
54.52000 73.000
54.56000 65.000
54.60000 65.000
54.64000 60.000
54.68000 59.000
54.72000 75.000
54.76000 46.000
54.80000 44.000
54.84000 49.000
54.88000 60.000
54.92000 61.000
54.96000 52.000
55.00000 63.000
55.04000 64.000
55.08000 58.000
55.12000 68.000
55.16000 55.000
55.20000 53.000
55.24000 58.000
55.28000 70.000
55.32000 69.000
55.36000 69.000
55.40000 81.000
55.44000 65.000
55.48000 79.000
55.52000 74.000
55.56000 66.000
55.60000 61.000
55.64000 61.000
55.68000 47.000
55.72000 65.000
55.76000 59.000
55.80000 57.000
55.84000 67.000
55.88000 54.000
55.92000 59.000
55.96000 57.000
56.00000 53.000
56.04000 57.000
56.08000 48.000
56.12000 51.000
56.16000 44.000
56.20000 78.000
56.24000 49.000
56.28000 45.000
56.32000 67.000
56.36000 61.000
56.40000 47.000
56.44000 47.000
56.48000 70.000
56.52000 58.000
56.56000 56.000
56.60000 69.000
56.64000 43.000
56.68000 47.000
56.72000 51.000
56.76000 70.000
56.80000 65.000
56.84000 38.000
56.88000 54.000
56.92000 53.000
56.96000 53.000
57.00000 53.000
57.04000 45.000
57.08000 64.000
57.12000 58.000
57.16000 62.000
57.20000 48.000
57.24000 42.000
57.28000 64.000
57.32000 40.000
57.36000 66.000
57.40000 60.000
57.44000 54.000
57.48000 60.000
57.52000 64.000
57.56000 61.000
57.60000 65.000
57.64000 68.000
57.68000 60.000
57.72000 49.000
57.76000 69.000
57.80000 64.000
57.84000 69.000
57.88000 65.000
57.92000 60.000
57.96000 55.000
58.00000 53.000
58.04000 66.000
58.08000 58.000
58.12000 64.000
58.16000 56.000
58.20000 52.000
58.24000 56.000
58.28000 49.000
58.32000 50.000
58.36000 58.000
58.40000 53.000
58.44000 71.000
58.48000 53.000
58.52000 61.000
58.56000 53.000
58.60000 59.000
58.64000 54.000
58.68000 42.000
58.72000 54.000
58.76000 53.000
58.80000 53.000
58.84000 56.000
58.88000 47.000
58.92000 51.000
58.96000 62.000
59.00000 63.000
59.04000 53.000
59.08000 46.000
59.12000 59.000
59.16000 49.000
59.20000 58.000
59.24000 59.000
59.28000 52.000
59.32000 55.000
59.36000 37.000
59.40000 50.000
59.44000 43.000
59.48000 47.000
59.52000 51.000
59.56000 52.000
59.60000 48.000
59.64000 54.000
59.68000 56.000
59.72000 54.000
59.76000 52.000
59.80000 47.000
59.84000 57.000
59.88000 52.000
59.92000 49.000