File: XRD/11.xy
5.00000 1412.000
5.04000 1408.000
5.08000 1451.000
5.12000 1418.000
5.16000 1375.000
5.20000 1361.000
5.24000 1301.000
5.28000 1317.000
5.32000 1349.000
5.36000 1241.000
5.40000 1171.000
5.44000 1296.000
5.48000 1235.000
5.52000 1185.000
5.56000 1199.000
5.60000 1206.000
5.64000 1150.000
5.68000 1163.000
5.72000 1141.000
5.76000 1109.000
5.80000 1123.000
5.84000 1150.000
5.88000 1163.000
5.92000 1084.000
5.96000 1070.000
6.00000 1082.000
6.04000 1085.000
6.08000 1007.000
6.12000 1066.000
6.16000 1034.000
6.20000 1021.000
6.24000 1010.000
6.28000 1065.000
6.32000 982.000
6.36000 1010.000
6.40000 966.000
6.44000 896.000
6.48000 976.000
6.52000 987.000
6.56000 958.000
6.60000 916.000
6.64000 897.000
6.68000 874.000
6.72000 905.000
6.76000 860.000
6.80000 895.000
6.84000 850.000
6.88000 863.000
6.92000 854.000
6.96000 833.000
7.00000 806.000
7.04000 852.000
7.08000 836.000
7.12000 818.000
7.16000 852.000
7.20000 845.000
7.24000 825.000
7.28000 797.000
7.32000 796.000
7.36000 870.000
7.40000 808.000
7.44000 817.000
7.48000 740.000
7.52000 764.000
7.56000 800.000
7.60000 731.000
7.64000 770.000
7.68000 799.000
7.72000 791.000
7.76000 814.000
7.80000 790.000
7.84000 754.000
7.88000 772.000
7.92000 766.000
7.96000 826.000
8.00000 770.000
8.04000 748.000
8.08000 758.000
8.12000 746.000
8.16000 776.000
8.20000 732.000
8.24000 760.000
8.28000 626.000
8.32000 700.000
8.36000 720.000
8.40000 673.000
8.44000 733.000
8.48000 693.000
8.52000 682.000
8.56000 671.000
8.60000 676.000
8.64000 646.000
8.68000 651.000
8.72000 649.000
8.76000 712.000
8.80000 676.000
8.84000 638.000
8.88000 682.000
8.92000 645.000
8.96000 656.000
9.00000 612.000
9.04000 658.000
9.08000 641.000
9.12000 618.000
9.16000 621.000
9.20000 622.000
9.24000 569.000
9.28000 633.000
9.32000 619.000
9.36000 588.000
9.40000 639.000
9.44000 586.000
9.48000 618.000
9.52000 598.000
9.56000 638.000
9.60000 595.000
9.64000 628.000
9.68000 612.000
9.72000 644.000
9.76000 573.000
9.80000 605.000
9.84000 615.000
9.88000 557.000
9.92000 579.000
9.96000 575.000
10.00000 574.000
10.04000 542.000
10.08000 561.000
10.12000 593.000
10.16000 573.000
10.20000 598.000
10.24000 558.000
10.28000 593.000
10.32000 589.000
10.36000 580.000
10.40000 574.000
10.44000 539.000
10.48000 525.000
10.52000 563.000
10.56000 546.000
10.60000 544.000
10.64000 544.000
10.68000 572.000
10.72000 540.000
10.76000 565.000
10.80000 565.000
10.84000 557.000
10.88000 497.000
10.92000 545.000
10.96000 583.000
11.00000 542.000
11.04000 600.000
11.08000 542.000
11.12000 552.000
11.16000 559.000
11.20000 542.000
11.24000 546.000
11.28000 557.000
11.32000 514.000
11.36000 515.000
11.40000 582.000
11.44000 524.000
11.48000 540.000
11.52000 561.000
11.56000 536.000
11.60000 567.000
11.64000 542.000
11.68000 591.000
11.72000 551.000
11.76000 546.000
11.80000 542.000
11.84000 575.000
11.88000 592.000
11.92000 538.000
11.96000 542.000
12.00000 555.000
12.04000 565.000
12.08000 608.000
12.12000 597.000
12.16000 616.000
12.20000 610.000
12.24000 617.000
12.28000 611.000
12.32000 605.000
12.36000 628.000
12.40000 620.000
12.44000 683.000
12.48000 627.000
12.52000 615.000
12.56000 636.000
12.60000 608.000
12.64000 625.000
12.68000 615.000
12.72000 608.000
12.76000 599.000
12.80000 602.000
12.84000 593.000
12.88000 673.000
12.92000 649.000
12.96000 627.000
13.00000 699.000
13.04000 775.000
13.08000 805.000
13.12000 1012.000
13.16000 1220.000
13.20000 1290.000
13.24000 1390.000
13.28000 1379.000
13.32000 1593.000
13.36000 1755.000
13.40000 1982.000
13.44000 2579.000
13.48000 3456.000
13.52000 3400.000
13.56000 2251.000
13.60000 1604.000
13.64000 1366.000
13.68000 1283.000
13.72000 1180.000
13.76000 1197.000
13.80000 1137.000
13.84000 1166.000
13.88000 1217.000
13.92000 1257.000
13.96000 1343.000
14.00000 1491.000
14.04000 1597.000
14.08000 1832.000
14.12000 2086.000
14.16000 2420.000
14.20000 3047.000
14.24000 4113.000
14.28000 5635.000
14.32000 6304.000
14.36000 5560.000
14.40000 4977.000
14.44000 4930.000
14.48000 5179.000
14.52000 6394.000
14.56000 8890.000
14.60000 13061.000
14.64000 21026.000
14.68000 35984.000
14.72000 60247.000
14.76000 98455.000
14.80000 173448.200
14.84000 347549.800
14.88000 792999.500
14.92000 1496312.000
14.96000 1762294.000
15.00000 1211385.000
15.04000 587306.800
15.08000 300792.900
15.12000 161222.400
15.16000 96158.000
15.20000 54746.000
15.24000 34420.000
15.28000 24874.000
15.32000 20234.000
15.36000 17687.000
15.40000 15439.000
15.44000 13878.000
15.48000 11998.000
15.52000 10557.000
15.56000 9096.000
15.60000 7763.000
15.64000 6437.000
15.68000 5518.000
15.72000 4675.000
15.76000 3926.000
15.80000 3315.000
15.84000 2901.000
15.88000 2513.000
15.92000 2144.000
15.96000 2028.000
16.00000 1746.000
16.04000 1767.000
16.08000 1641.000
16.12000 1569.000
16.16000 1513.000
16.20000 1370.000
16.24000 1311.000
16.28000 1284.000
16.32000 1273.000
16.36000 1174.000
16.40000 1033.000
16.44000 1015.000
16.48000 1014.000
16.52000 1010.000
16.56000 1023.000
16.60000 999.000
16.64000 963.000
16.68000 923.000
16.72000 946.000
16.76000 818.000
16.80000 833.000
16.84000 866.000
16.88000 787.000
16.92000 851.000
16.96000 820.000
17.00000 800.000
17.04000 789.000
17.08000 794.000
17.12000 796.000
17.16000 753.000
17.20000 758.000
17.24000 830.000
17.28000 749.000
17.32000 785.000
17.36000 708.000
17.40000 724.000
17.44000 778.000
17.48000 690.000
17.52000 715.000
17.56000 771.000
17.60000 730.000
17.64000 732.000
17.68000 685.000
17.72000 712.000
17.76000 661.000
17.80000 722.000
17.84000 710.000
17.88000 770.000
17.92000 716.000
17.96000 729.000
18.00000 704.000
18.04000 665.000
18.08000 692.000
18.12000 687.000
18.16000 707.000
18.20000 680.000
18.24000 706.000
18.28000 678.000
18.32000 680.000
18.36000 715.000
18.40000 698.000
18.44000 687.000
18.48000 724.000
18.52000 701.000
18.56000 757.000
18.60000 728.000
18.64000 754.000
18.68000 744.000
18.72000 713.000
18.76000 727.000
18.80000 717.000
18.84000 724.000
18.88000 682.000
18.92000 752.000
18.96000 706.000
19.00000 730.000
19.04000 703.000
19.08000 686.000
19.12000 687.000
19.16000 702.000
19.20000 713.000
19.24000 702.000
19.28000 717.000
19.32000 728.000
19.36000 658.000
19.40000 712.000
19.44000 729.000
19.48000 692.000
19.52000 721.000
19.56000 695.000
19.60000 760.000
19.64000 679.000
19.68000 747.000
19.72000 727.000
19.76000 722.000
19.80000 710.000
19.84000 711.000
19.88000 756.000
19.92000 721.000
19.96000 777.000
20.00000 748.000
20.04000 708.000
20.08000 736.000
20.12000 767.000
20.16000 748.000
20.20000 768.000
20.24000 744.000
20.28000 760.000
20.32000 734.000
20.36000 724.000
20.40000 786.000
20.44000 767.000
20.48000 756.000
20.52000 757.000
20.56000 759.000
20.60000 752.000
20.64000 776.000
20.68000 774.000
20.72000 751.000
20.76000 715.000
20.80000 798.000
20.84000 758.000
20.88000 756.000
20.92000 782.000
20.96000 783.000
21.00000 790.000
21.04000 811.000
21.08000 770.000
21.12000 829.000
21.16000 804.000
21.20000 836.000
21.24000 841.000
21.28000 801.000
21.32000 762.000
21.36000 806.000
21.40000 801.000
21.44000 837.000
21.48000 874.000
21.52000 765.000
21.56000 863.000
21.60000 778.000
21.64000 826.000
21.68000 794.000
21.72000 841.000
21.76000 905.000
21.80000 818.000
21.84000 779.000
21.88000 815.000
21.92000 827.000
21.96000 853.000
22.00000 891.000
22.04000 845.000
22.08000 890.000
22.12000 813.000
22.16000 830.000
22.20000 856.000
22.24000 896.000
22.28000 819.000
22.32000 801.000
22.36000 815.000
22.40000 826.000
22.44000 816.000
22.48000 852.000
22.52000 859.000
22.56000 805.000
22.60000 803.000
22.64000 831.000
22.68000 901.000
22.72000 807.000
22.76000 890.000
22.80000 871.000
22.84000 878.000
22.88000 847.000
22.92000 836.000
22.96000 823.000
23.00000 825.000
23.04000 878.000
23.08000 870.000
23.12000 882.000
23.16000 903.000
23.20000 892.000
23.24000 874.000
23.28000 890.000
23.32000 847.000
23.36000 815.000
23.40000 876.000
23.44000 867.000
23.48000 883.000
23.52000 824.000
23.56000 884.000
23.60000 831.000
23.64000 855.000
23.68000 844.000
23.72000 877.000
23.76000 847.000
23.80000 882.000
23.84000 863.000
23.88000 879.000
23.92000 903.000
23.96000 891.000
24.00000 892.000
24.04000 872.000
24.08000 865.000
24.12000 859.000
24.16000 868.000
24.20000 849.000
24.24000 890.000
24.28000 901.000
24.32000 870.000
24.36000 889.000
24.40000 878.000
24.44000 860.000
24.48000 911.000
24.52000 933.000
24.56000 874.000
24.60000 892.000
24.64000 879.000
24.68000 899.000
24.72000 902.000
24.76000 918.000
24.80000 923.000
24.84000 891.000
24.88000 896.000
24.92000 862.000
24.96000 915.000
25.00000 917.000
25.04000 886.000
25.08000 864.000
25.12000 925.000
25.16000 888.000
25.20000 841.000
25.24000 841.000
25.28000 874.000
25.32000 878.000
25.36000 881.000
25.40000 887.000
25.44000 937.000
25.48000 898.000
25.52000 879.000
25.56000 857.000
25.60000 910.000
25.64000 851.000
25.68000 879.000
25.72000 875.000
25.76000 860.000
25.80000 838.000
25.84000 906.000
25.88000 829.000
25.92000 820.000
25.96000 881.000
26.00000 853.000
26.04000 883.000
26.08000 893.000
26.12000 885.000
26.16000 926.000
26.20000 858.000
26.24000 854.000
26.28000 854.000
26.32000 841.000
26.36000 791.000
26.40000 904.000
26.44000 921.000
26.48000 884.000
26.52000 864.000
26.56000 846.000
26.60000 831.000
26.64000 856.000
26.68000 858.000
26.72000 933.000
26.76000 972.000
26.80000 1079.000
26.84000 1214.000
26.88000 1275.000
26.92000 1288.000
26.96000 1327.000
27.00000 1400.000
27.04000 1550.000
27.08000 1620.000
27.12000 2061.000
27.16000 2410.000
27.20000 2222.000
27.24000 1687.000
27.28000 1292.000
27.32000 1117.000
27.36000 1036.000
27.40000 1039.000
27.44000 977.000
27.48000 1002.000
27.52000 987.000
27.56000 902.000
27.60000 929.000
27.64000 1007.000
27.68000 1029.000
27.72000 973.000
27.76000 950.000
27.80000 987.000
27.84000 945.000
27.88000 990.000
27.92000 986.000
27.96000 1010.000
28.00000 1044.000
28.04000 1030.000
28.08000 966.000
28.12000 1082.000
28.16000 1032.000
28.20000 1072.000
28.24000 1119.000
28.28000 1038.000
28.32000 1092.000
28.36000 1088.000
28.40000 1111.000
28.44000 1113.000
28.48000 1150.000
28.52000 1193.000
28.56000 1176.000
28.60000 1253.000
28.64000 1439.000
28.68000 1610.000
28.72000 1754.000
28.76000 2328.000
28.80000 2947.000
28.84000 3237.000
28.88000 2913.000
28.92000 2309.000
28.96000 1913.000
29.00000 1836.000
29.04000 1975.000
29.08000 1897.000
29.12000 1772.000
29.16000 1762.000
29.20000 1767.000
29.24000 1915.000
29.28000 1862.000
29.32000 2057.000
29.36000 2132.000
29.40000 2244.000
29.44000 2335.000
29.48000 2579.000
29.52000 2866.000
29.56000 2989.000
29.60000 3445.000
29.64000 3771.000
29.68000 4400.000
29.72000 5471.000
29.76000 7271.000
29.80000 10676.000
29.84000 16165.000
29.88000 26375.000
29.92000 42313.000
29.96000 70646.000
30.00000 123802.000
30.04000 253056.200
30.08000 528744.100
30.12000 794539.400
30.16000 812178.200
30.20000 655015.600
30.24000 440830.100
30.28000 223751.500
30.32000 119505.200
30.36000 67861.000
30.40000 38312.000
30.44000 23631.000
30.48000 16148.000
30.52000 12706.000
30.56000 10689.000
30.60000 9480.000
30.64000 8612.000
30.68000 7964.000
30.72000 7520.000
30.76000 7211.000
30.80000 6673.000
30.84000 6424.000
30.88000 6170.000
30.92000 5841.000
30.96000 5626.000
31.00000 5303.000
31.04000 5076.000
31.08000 5093.000
31.12000 4664.000
31.16000 4467.000
31.20000 4258.000
31.24000 3953.000
31.28000 3759.000
31.32000 3611.000
31.36000 3415.000
31.40000 3103.000
31.44000 2983.000
31.48000 2595.000
31.52000 2609.000
31.56000 2426.000
31.60000 2263.000
31.64000 2086.000
31.68000 2001.000
31.72000 1980.000
31.76000 1853.000
31.80000 1804.000
31.84000 1717.000
31.88000 1723.000
31.92000 1654.000
31.96000 1509.000
32.00000 1375.000
32.04000 1234.000
32.08000 1209.000
32.12000 1131.000
32.16000 1052.000
32.20000 1114.000
32.24000 1061.000
32.28000 1030.000
32.32000 972.000
32.36000 1018.000
32.40000 973.000
32.44000 983.000
32.48000 1004.000
32.52000 954.000
32.56000 981.000
32.60000 948.000
32.64000 901.000
32.68000 877.000
32.72000 864.000
32.76000 877.000
32.80000 897.000
32.84000 888.000
32.88000 886.000
32.92000 852.000
32.96000 785.000
33.00000 854.000
33.04000 844.000
33.08000 802.000
33.12000 718.000
33.16000 798.000
33.20000 755.000
33.24000 743.000
33.28000 701.000
33.32000 705.000
33.36000 730.000
33.40000 825.000
33.44000 809.000
33.48000 929.000
33.52000 1057.000
33.56000 1103.000
33.60000 1095.000
33.64000 1051.000
33.68000 954.000
33.72000 838.000
33.76000 822.000
33.80000 757.000
33.84000 699.000
33.88000 690.000
33.92000 706.000
33.96000 723.000
34.00000 689.000
34.04000 659.000
34.08000 641.000
34.12000 625.000
34.16000 641.000
34.20000 597.000
34.24000 602.000
34.28000 660.000
34.32000 647.000
34.36000 581.000
34.40000 610.000
34.44000 591.000
34.48000 670.000
34.52000 644.000
34.56000 612.000
34.60000 577.000
34.64000 609.000
34.68000 601.000
34.72000 566.000
34.76000 570.000
34.80000 563.000
34.84000 535.000
34.88000 570.000
34.92000 557.000
34.96000 568.000
35.00000 565.000
35.04000 575.000
35.08000 577.000
35.12000 556.000
35.16000 551.000
35.20000 536.000
35.24000 545.000
35.28000 577.000
35.32000 540.000
35.36000 568.000
35.40000 537.000
35.44000 553.000
35.48000 524.000
35.52000 509.000
35.56000 536.000
35.60000 496.000
35.64000 498.000
35.68000 494.000
35.72000 514.000
35.76000 561.000
35.80000 560.000
35.84000 518.000
35.88000 506.000
35.92000 489.000
35.96000 479.000
36.00000 520.000
36.04000 502.000
36.08000 480.000
36.12000 468.000
36.16000 477.000
36.20000 517.000
36.24000 471.000
36.28000 514.000
36.32000 445.000
36.36000 468.000
36.40000 480.000
36.44000 445.000
36.48000 466.000
36.52000 494.000
36.56000 514.000
36.60000 460.000
36.64000 450.000
36.68000 447.000
36.72000 470.000
36.76000 428.000
36.80000 426.000
36.84000 430.000
36.88000 440.000
36.92000 458.000
36.96000 469.000
37.00000 450.000
37.04000 491.000
37.08000 483.000
37.12000 458.000
37.16000 427.000
37.20000 415.000
37.24000 448.000
37.28000 438.000
37.32000 424.000
37.36000 404.000
37.40000 401.000
37.44000 460.000
37.48000 468.000
37.52000 431.000
37.56000 407.000
37.60000 413.000
37.64000 472.000
37.68000 454.000
37.72000 471.000
37.76000 430.000
37.80000 404.000
37.84000 430.000
37.88000 424.000
37.92000 457.000
37.96000 429.000
38.00000 408.000
38.04000 419.000
38.08000 407.000
38.12000 353.000
38.16000 388.000
38.20000 431.000
38.24000 394.000
38.28000 396.000
38.32000 376.000
38.36000 415.000
38.40000 423.000
38.44000 352.000
38.48000 384.000
38.52000 405.000
38.56000 388.000
38.60000 378.000
38.64000 389.000
38.68000 372.000
38.72000 381.000
38.76000 393.000
38.80000 386.000
38.84000 407.000
38.88000 377.000
38.92000 424.000
38.96000 389.000
39.00000 369.000
39.04000 415.000
39.08000 349.000
39.12000 407.000
39.16000 375.000
39.20000 377.000
39.24000 370.000
39.28000 369.000
39.32000 387.000
39.36000 371.000
39.40000 409.000
39.44000 348.000
39.48000 365.000
39.52000 360.000
39.56000 366.000
39.60000 364.000
39.64000 368.000
39.68000 382.000
39.72000 350.000
39.76000 378.000
39.80000 351.000
39.84000 413.000
39.88000 343.000
39.92000 378.000
39.96000 368.000
40.00000 379.000
40.04000 400.000
40.08000 346.000
40.12000 352.000
40.16000 356.000
40.20000 342.000
40.24000 356.000
40.28000 375.000
40.32000 386.000
40.36000 397.000
40.40000 361.000
40.44000 352.000
40.48000 357.000
40.52000 400.000
40.56000 387.000
40.60000 358.000
40.64000 383.000
40.68000 358.000
40.72000 411.000
40.76000 397.000
40.80000 398.000
40.84000 421.000
40.88000 444.000
40.92000 402.000
40.96000 366.000
41.00000 403.000
41.04000 416.000
41.08000 416.000
41.12000 361.000
41.16000 403.000
41.20000 434.000
41.24000 463.000
41.28000 479.000
41.32000 407.000
41.36000 426.000
41.40000 383.000
41.44000 403.000
41.48000 372.000
41.52000 358.000
41.56000 401.000
41.60000 368.000
41.64000 410.000
41.68000 401.000
41.72000 362.000
41.76000 352.000
41.80000 378.000
41.84000 372.000
41.88000 384.000
41.92000 373.000
41.96000 383.000
42.00000 390.000
42.04000 363.000
42.08000 410.000
42.12000 403.000
42.16000 379.000
42.20000 381.000
42.24000 376.000
42.28000 329.000
42.32000 383.000
42.36000 394.000
42.40000 368.000
42.44000 359.000
42.48000 350.000
42.52000 363.000
42.56000 364.000
42.60000 374.000
42.64000 379.000
42.68000 370.000
42.72000 387.000
42.76000 394.000
42.80000 365.000
42.84000 367.000
42.88000 366.000
42.92000 411.000
42.96000 392.000
43.00000 393.000
43.04000 400.000
43.08000 370.000
43.12000 396.000
43.16000 372.000
43.20000 378.000
43.24000 391.000
43.28000 383.000
43.32000 379.000
43.36000 353.000
43.40000 396.000
43.44000 373.000
43.48000 393.000
43.52000 376.000
43.56000 397.000
43.60000 364.000
43.64000 380.000
43.68000 386.000
43.72000 404.000
43.76000 440.000
43.80000 461.000
43.84000 478.000
43.88000 499.000
43.92000 453.000
43.96000 471.000
44.00000 425.000
44.04000 406.000
44.08000 388.000
44.12000 420.000
44.16000 422.000
44.20000 424.000
44.24000 421.000
44.28000 424.000
44.32000 374.000
44.36000 412.000
44.40000 393.000
44.44000 421.000
44.48000 409.000
44.52000 446.000
44.56000 428.000
44.60000 429.000
44.64000 395.000
44.68000 424.000
44.72000 434.000
44.76000 439.000
44.80000 420.000
44.84000 424.000
44.88000 445.000
44.92000 422.000
44.96000 431.000
45.00000 464.000
45.04000 453.000
45.08000 494.000
45.12000 476.000
45.16000 497.000
45.20000 495.000
45.24000 513.000
45.28000 546.000
45.32000 544.000
45.36000 571.000
45.40000 593.000
45.44000 698.000
45.48000 775.000
45.52000 872.000
45.56000 1089.000
45.60000 1411.000
45.64000 2146.000
45.68000 3138.000
45.72000 4609.000
45.76000 7604.000
45.80000 14913.000
45.84000 28460.000
45.88000 39706.000
45.92000 37393.000
45.96000 31120.000
46.00000 29104.000
46.04000 22163.000
46.08000 12712.000
46.12000 6842.000
46.16000 4206.000
46.20000 2531.000
46.24000 1767.000
46.28000 1269.000
46.32000 1030.000
46.36000 890.000
46.40000 887.000
46.44000 823.000
46.48000 780.000
46.52000 782.000
46.56000 671.000
46.60000 692.000
46.64000 622.000
46.68000 677.000
46.72000 659.000
46.76000 609.000
46.80000 604.000
46.84000 578.000
46.88000 555.000
46.92000 532.000
46.96000 551.000
47.00000 542.000
47.04000 576.000
47.08000 548.000
47.12000 515.000
47.16000 534.000
47.20000 511.000
47.24000 558.000
47.28000 553.000
47.32000 537.000
47.36000 514.000
47.40000 490.000
47.44000 449.000
47.48000 513.000
47.52000 466.000
47.56000 479.000
47.60000 461.000
47.64000 440.000
47.68000 448.000
47.72000 419.000
47.76000 435.000
47.80000 450.000
47.84000 411.000
47.88000 405.000
47.92000 452.000
47.96000 397.000
48.00000 395.000
48.04000 429.000
48.08000 383.000
48.12000 379.000
48.16000 428.000
48.20000 341.000
48.24000 357.000
48.28000 350.000
48.32000 405.000
48.36000 330.000
48.40000 359.000
48.44000 359.000
48.48000 346.000
48.52000 377.000
48.56000 342.000
48.60000 368.000
48.64000 379.000
48.68000 338.000
48.72000 355.000
48.76000 320.000
48.80000 325.000
48.84000 317.000
48.88000 354.000
48.92000 331.000
48.96000 305.000
49.00000 309.000
49.04000 327.000
49.08000 326.000
49.12000 341.000
49.16000 308.000
49.20000 314.000
49.24000 324.000
49.28000 333.000
49.32000 301.000
49.36000 315.000
49.40000 316.000
49.44000 283.000
49.48000 302.000
49.52000 293.000
49.56000 341.000
49.60000 292.000
49.64000 293.000
49.68000 310.000
49.72000 327.000
49.76000 308.000
49.80000 288.000
49.84000 296.000
49.88000 296.000
49.92000 317.000
49.96000 326.000
50.00000 295.000
50.04000 310.000
50.08000 296.000
50.12000 303.000
50.16000 294.000
50.20000 302.000
50.24000 309.000
50.28000 275.000
50.32000 325.000
50.36000 282.000
50.40000 304.000
50.44000 344.000
50.48000 319.000
50.52000 280.000
50.56000 293.000
50.60000 286.000
50.64000 317.000
50.68000 290.000
50.72000 316.000
50.76000 291.000
50.80000 329.000
50.84000 290.000
50.88000 305.000
50.92000 297.000
50.96000 274.000
51.00000 285.000
51.04000 294.000
51.08000 300.000
51.12000 296.000
51.16000 265.000
51.20000 310.000
51.24000 279.000
51.28000 285.000
51.32000 273.000
51.36000 295.000
51.40000 291.000
51.44000 314.000
51.48000 273.000
51.52000 299.000
51.56000 307.000
51.60000 312.000
51.64000 283.000
51.68000 281.000
51.72000 287.000
51.76000 256.000
51.80000 298.000
51.84000 320.000
51.88000 271.000
51.92000 273.000
51.96000 276.000
52.00000 282.000
52.04000 295.000
52.08000 269.000
52.12000 277.000
52.16000 286.000
52.20000 292.000
52.24000 285.000
52.28000 284.000
52.32000 299.000
52.36000 306.000
52.40000 297.000
52.44000 271.000
52.48000 281.000
52.52000 273.000
52.56000 276.000
52.60000 278.000
52.64000 299.000
52.68000 311.000
52.72000 273.000
52.76000 265.000
52.80000 255.000
52.84000 312.000
52.88000 273.000
52.92000 281.000
52.96000 276.000
53.00000 261.000
53.04000 283.000
53.08000 266.000
53.12000 268.000
53.16000 263.000
53.20000 308.000
53.24000 281.000
53.28000 287.000
53.32000 307.000
53.36000 265.000
53.40000 272.000
53.44000 299.000
53.48000 291.000
53.52000 304.000
53.56000 274.000
53.60000 284.000
53.64000 274.000
53.68000 267.000
53.72000 297.000
53.76000 287.000
53.80000 293.000
53.84000 278.000
53.88000 250.000
53.92000 266.000
53.96000 279.000
54.00000 269.000
54.04000 287.000
54.08000 284.000
54.12000 240.000
54.16000 270.000
54.20000 277.000
54.24000 282.000
54.28000 258.000
54.32000 269.000
54.36000 277.000
54.40000 287.000
54.44000 290.000
54.48000 291.000
54.52000 265.000
54.56000 265.000
54.60000 253.000
54.64000 287.000
54.68000 271.000
54.72000 263.000
54.76000 262.000
54.80000 282.000
54.84000 258.000
54.88000 286.000
54.92000 305.000
54.96000 280.000
55.00000 288.000
55.04000 285.000
55.08000 272.000
55.12000 267.000
55.16000 306.000
55.20000 274.000
55.24000 277.000
55.28000 264.000
55.32000 285.000
55.36000 262.000
55.40000 274.000
55.44000 285.000
55.48000 287.000
55.52000 293.000
55.56000 273.000
55.60000 297.000
55.64000 304.000
55.68000 324.000
55.72000 335.000
55.76000 321.000
55.80000 296.000
55.84000 317.000
55.88000 327.000
55.92000 330.000
55.96000 337.000
56.00000 317.000
56.04000 361.000
56.08000 316.000
56.12000 303.000
56.16000 302.000
56.20000 268.000
56.24000 278.000
56.28000 289.000
56.32000 295.000
56.36000 255.000
56.40000 270.000
56.44000 275.000
56.48000 296.000
56.52000 293.000
56.56000 270.000
56.60000 273.000
56.64000 283.000
56.68000 273.000
56.72000 282.000
56.76000 294.000
56.80000 271.000
56.84000 289.000
56.88000 298.000
56.92000 309.000
56.96000 303.000
57.00000 271.000
57.04000 299.000
57.08000 261.000
57.12000 284.000
57.16000 275.000
57.20000 293.000
57.24000 294.000
57.28000 271.000
57.32000 291.000
57.36000 288.000
57.40000 310.000
57.44000 265.000
57.48000 274.000
57.52000 276.000
57.56000 283.000
57.60000 287.000
57.64000 271.000
57.68000 277.000
57.72000 304.000
57.76000 280.000
57.80000 291.000
57.84000 305.000
57.88000 270.000
57.92000 320.000
57.96000 296.000
58.00000 249.000
58.04000 301.000
58.08000 310.000
58.12000 307.000
58.16000 299.000
58.20000 308.000
58.24000 278.000
58.28000 295.000
58.32000 290.000
58.36000 289.000
58.40000 301.000
58.44000 277.000
58.48000 294.000
58.52000 265.000
58.56000 312.000
58.60000 296.000
58.64000 279.000
58.68000 308.000
58.72000 265.000
58.76000 299.000
58.80000 266.000
58.84000 287.000
58.88000 303.000
58.92000 276.000
58.96000 336.000
59.00000 276.000
59.04000 290.000
59.08000 310.000
59.12000 305.000
59.16000 270.000
59.20000 282.000
59.24000 306.000
59.28000 295.000
59.32000 326.000
59.36000 274.000
59.40000 295.000
59.44000 304.000
59.48000 338.000
59.52000 314.000
59.56000 282.000
59.60000 327.000
59.64000 338.000
59.68000 351.000
59.72000 373.000
59.76000 396.000
59.80000 363.000
59.84000 341.000
59.88000 304.000
59.92000 328.000