File: XRD/12.xy
5.00000 995.000
5.04000 998.000
5.08000 920.000
5.12000 1000.000
5.16000 976.000
5.20000 977.000
5.24000 937.000
5.28000 924.000
5.32000 946.000
5.36000 974.000
5.40000 934.000
5.44000 943.000
5.48000 919.000
5.52000 963.000
5.56000 943.000
5.60000 914.000
5.64000 962.000
5.68000 932.000
5.72000 974.000
5.76000 1022.000
5.80000 983.000
5.84000 1005.000
5.88000 959.000
5.92000 847.000
5.96000 865.000
6.00000 869.000
6.04000 872.000
6.08000 797.000
6.12000 821.000
6.16000 817.000
6.20000 853.000
6.24000 815.000
6.28000 824.000
6.32000 803.000
6.36000 807.000
6.40000 836.000
6.44000 823.000
6.48000 810.000
6.52000 811.000
6.56000 801.000
6.60000 768.000
6.64000 755.000
6.68000 732.000
6.72000 771.000
6.76000 771.000
6.80000 712.000
6.84000 695.000
6.88000 743.000
6.92000 772.000
6.96000 710.000
7.00000 696.000
7.04000 739.000
7.08000 721.000
7.12000 738.000
7.16000 726.000
7.20000 713.000
7.24000 708.000
7.28000 730.000
7.32000 724.000
7.36000 720.000
7.40000 726.000
7.44000 686.000
7.48000 750.000
7.52000 736.000
7.56000 758.000
7.60000 761.000
7.64000 805.000
7.68000 821.000
7.72000 838.000
7.76000 783.000
7.80000 760.000
7.84000 706.000
7.88000 679.000
7.92000 681.000
7.96000 672.000
8.00000 642.000
8.04000 614.000
8.08000 660.000
8.12000 632.000
8.16000 618.000
8.20000 592.000
8.24000 610.000
8.28000 661.000
8.32000 644.000
8.36000 639.000
8.40000 619.000
8.44000 663.000
8.48000 623.000
8.52000 687.000
8.56000 679.000
8.60000 685.000
8.64000 615.000
8.68000 622.000
8.72000 599.000
8.76000 564.000
8.80000 606.000
8.84000 567.000
8.88000 576.000
8.92000 583.000
8.96000 623.000
9.00000 630.000
9.04000 602.000
9.08000 587.000
9.12000 624.000
9.16000 620.000
9.20000 626.000
9.24000 598.000
9.28000 624.000
9.32000 620.000
9.36000 622.000
9.40000 589.000
9.44000 570.000
9.48000 545.000
9.52000 595.000
9.56000 541.000
9.60000 536.000
9.64000 540.000
9.68000 541.000
9.72000 575.000
9.76000 575.000
9.80000 565.000
9.84000 517.000
9.88000 563.000
9.92000 609.000
9.96000 676.000
10.00000 698.000
10.04000 681.000
10.08000 700.000
10.12000 764.000
10.16000 762.000
10.20000 727.000
10.24000 744.000
10.28000 600.000
10.32000 579.000
10.36000 562.000
10.40000 582.000
10.44000 554.000
10.48000 580.000
10.52000 605.000
10.56000 623.000
10.60000 670.000
10.64000 683.000
10.68000 630.000
10.72000 673.000
10.76000 602.000
10.80000 607.000
10.84000 564.000
10.88000 523.000
10.92000 478.000
10.96000 518.000
11.00000 517.000
11.04000 461.000
11.08000 547.000
11.12000 473.000
11.16000 500.000
11.20000 475.000
11.24000 516.000
11.28000 526.000
11.32000 469.000
11.36000 546.000
11.40000 503.000
11.44000 533.000
11.48000 569.000
11.52000 559.000
11.56000 550.000
11.60000 539.000
11.64000 540.000
11.68000 581.000
11.72000 517.000
11.76000 518.000
11.80000 487.000
11.84000 476.000
11.88000 458.000
11.92000 453.000
11.96000 492.000
12.00000 475.000
12.04000 461.000
12.08000 536.000
12.12000 499.000
12.16000 503.000
12.20000 540.000
12.24000 570.000
12.28000 533.000
12.32000 586.000
12.36000 598.000
12.40000 606.000
12.44000 663.000
12.48000 729.000
12.52000 777.000
12.56000 870.000
12.60000 1033.000
12.64000 1079.000
12.68000 1051.000
12.72000 917.000
12.76000 822.000
12.80000 698.000
12.84000 588.000
12.88000 567.000
12.92000 532.000
12.96000 514.000
13.00000 469.000
13.04000 497.000
13.08000 525.000
13.12000 530.000
13.16000 545.000
13.20000 616.000
13.24000 581.000
13.28000 642.000
13.32000 709.000
13.36000 787.000
13.40000 732.000
13.44000 731.000
13.48000 805.000
13.52000 826.000
13.56000 832.000
13.60000 932.000
13.64000 985.000
13.68000 1075.000
13.72000 1168.000
13.76000 1370.000
13.80000 1592.000
13.84000 1731.000
13.88000 1983.000
13.92000 2364.000
13.96000 2780.000
14.00000 3271.000
14.04000 3264.000
14.08000 2668.000
14.12000 1736.000
14.16000 1183.000
14.20000 936.000
14.24000 721.000
14.28000 619.000
14.32000 579.000
14.36000 547.000
14.40000 528.000
14.44000 525.000
14.48000 475.000
14.52000 481.000
14.56000 456.000
14.60000 471.000
14.64000 455.000
14.68000 457.000
14.72000 441.000
14.76000 450.000
14.80000 442.000
14.84000 447.000
14.88000 427.000
14.92000 412.000
14.96000 425.000
15.00000 434.000
15.04000 461.000
15.08000 418.000
15.12000 421.000
15.16000 433.000
15.20000 410.000
15.24000 425.000
15.28000 415.000
15.32000 414.000
15.36000 423.000
15.40000 431.000
15.44000 425.000
15.48000 434.000
15.52000 449.000
15.56000 441.000
15.60000 431.000
15.64000 483.000
15.68000 452.000
15.72000 418.000
15.76000 486.000
15.80000 456.000
15.84000 422.000
15.88000 427.000
15.92000 437.000
15.96000 422.000
16.00000 441.000
16.04000 446.000
16.08000 417.000
16.12000 412.000
16.16000 422.000
16.20000 439.000
16.24000 443.000
16.28000 421.000
16.32000 444.000
16.36000 397.000
16.40000 445.000
16.44000 464.000
16.48000 435.000
16.52000 453.000
16.56000 424.000
16.60000 431.000
16.64000 388.000
16.68000 460.000
16.72000 438.000
16.76000 447.000
16.80000 413.000
16.84000 451.000
16.88000 455.000
16.92000 427.000
16.96000 434.000
17.00000 458.000
17.04000 466.000
17.08000 467.000
17.12000 435.000
17.16000 433.000
17.20000 470.000
17.24000 467.000
17.28000 443.000
17.32000 462.000
17.36000 501.000
17.40000 488.000
17.44000 477.000
17.48000 477.000
17.52000 469.000
17.56000 483.000
17.60000 457.000
17.64000 470.000
17.68000 473.000
17.72000 472.000
17.76000 515.000
17.80000 462.000
17.84000 465.000
17.88000 498.000
17.92000 463.000
17.96000 465.000
18.00000 487.000
18.04000 500.000
18.08000 498.000
18.12000 485.000
18.16000 487.000
18.20000 507.000
18.24000 520.000
18.28000 522.000
18.32000 494.000
18.36000 495.000
18.40000 481.000
18.44000 519.000
18.48000 521.000
18.52000 496.000
18.56000 509.000
18.60000 510.000
18.64000 557.000
18.68000 522.000
18.72000 498.000
18.76000 531.000
18.80000 515.000
18.84000 522.000
18.88000 497.000
18.92000 534.000
18.96000 523.000
19.00000 556.000
19.04000 549.000
19.08000 579.000
19.12000 511.000
19.16000 549.000
19.20000 544.000
19.24000 533.000
19.28000 560.000
19.32000 550.000
19.36000 591.000
19.40000 575.000
19.44000 569.000
19.48000 599.000
19.52000 621.000
19.56000 691.000
19.60000 728.000
19.64000 749.000
19.68000 769.000
19.72000 900.000
19.76000 1003.000
19.80000 1140.000
19.84000 1383.000
19.88000 1551.000
19.92000 1465.000
19.96000 1277.000
20.00000 1031.000
20.04000 814.000
20.08000 737.000
20.12000 652.000
20.16000 674.000
20.20000 668.000
20.24000 611.000
20.28000 599.000
20.32000 619.000
20.36000 575.000
20.40000 656.000
20.44000 640.000
20.48000 553.000
20.52000 621.000
20.56000 619.000
20.60000 644.000
20.64000 655.000
20.68000 655.000
20.72000 668.000
20.76000 611.000
20.80000 662.000
20.84000 624.000
20.88000 643.000
20.92000 654.000
20.96000 699.000
21.00000 697.000
21.04000 618.000
21.08000 626.000
21.12000 596.000
21.16000 676.000
21.20000 707.000
21.24000 692.000
21.28000 739.000
21.32000 671.000
21.36000 731.000
21.40000 665.000
21.44000 655.000
21.48000 662.000
21.52000 670.000
21.56000 662.000
21.60000 690.000
21.64000 661.000
21.68000 657.000
21.72000 686.000
21.76000 658.000
21.80000 702.000
21.84000 630.000
21.88000 687.000
21.92000 674.000
21.96000 707.000
22.00000 680.000
22.04000 696.000
22.08000 721.000
22.12000 702.000
22.16000 725.000
22.20000 739.000
22.24000 692.000
22.28000 764.000
22.32000 747.000
22.36000 723.000
22.40000 766.000
22.44000 732.000
22.48000 774.000
22.52000 710.000
22.56000 703.000
22.60000 711.000
22.64000 725.000
22.68000 725.000
22.72000 676.000
22.76000 772.000
22.80000 794.000
22.84000 789.000
22.88000 793.000
22.92000 822.000
22.96000 785.000
23.00000 796.000
23.04000 724.000
23.08000 792.000
23.12000 818.000
23.16000 808.000
23.20000 877.000
23.24000 808.000
23.28000 777.000
23.32000 798.000
23.36000 784.000
23.40000 781.000
23.44000 758.000
23.48000 765.000
23.52000 728.000
23.56000 727.000
23.60000 723.000
23.64000 704.000
23.68000 795.000
23.72000 746.000
23.76000 768.000
23.80000 708.000
23.84000 691.000
23.88000 735.000
23.92000 742.000
23.96000 764.000
24.00000 778.000
24.04000 790.000
24.08000 798.000
24.12000 842.000
24.16000 866.000
24.20000 954.000
24.24000 992.000
24.28000 1146.000
24.32000 1285.000
24.36000 1481.000
24.40000 1667.000
24.44000 1677.000
24.48000 1573.000
24.52000 1282.000
24.56000 1061.000
24.60000 917.000
24.64000 915.000
24.68000 785.000
24.72000 801.000
24.76000 813.000
24.80000 862.000
24.84000 774.000
24.88000 823.000
24.92000 797.000
24.96000 827.000
25.00000 799.000
25.04000 813.000
25.08000 810.000
25.12000 798.000
25.16000 806.000
25.20000 790.000
25.24000 824.000
25.28000 791.000
25.32000 810.000
25.36000 793.000
25.40000 823.000
25.44000 842.000
25.48000 811.000
25.52000 837.000
25.56000 852.000
25.60000 859.000
25.64000 810.000
25.68000 860.000
25.72000 790.000
25.76000 757.000
25.80000 746.000
25.84000 817.000
25.88000 793.000
25.92000 779.000
25.96000 820.000
26.00000 787.000
26.04000 844.000
26.08000 795.000
26.12000 779.000
26.16000 787.000
26.20000 797.000
26.24000 759.000
26.28000 751.000
26.32000 769.000
26.36000 805.000
26.40000 775.000
26.44000 822.000
26.48000 775.000
26.52000 890.000
26.56000 809.000
26.60000 821.000
26.64000 840.000
26.68000 845.000
26.72000 747.000
26.76000 764.000
26.80000 785.000
26.84000 846.000
26.88000 895.000
26.92000 882.000
26.96000 891.000
27.00000 922.000
27.04000 989.000
27.08000 939.000
27.12000 925.000
27.16000 916.000
27.20000 873.000
27.24000 829.000
27.28000 817.000
27.32000 748.000
27.36000 755.000
27.40000 707.000
27.44000 774.000
27.48000 753.000
27.52000 698.000
27.56000 703.000
27.60000 748.000
27.64000 772.000
27.68000 736.000
27.72000 694.000
27.76000 736.000
27.80000 750.000
27.84000 774.000
27.88000 796.000
27.92000 827.000
27.96000 869.000
28.00000 948.000
28.04000 1011.000
28.08000 1154.000
28.12000 1286.000
28.16000 1581.000
28.20000 1771.000
28.24000 2152.000
28.28000 2210.000
28.32000 2109.000
28.36000 1756.000
28.40000 1373.000
28.44000 1008.000
28.48000 957.000
28.52000 826.000
28.56000 831.000
28.60000 773.000
28.64000 706.000
28.68000 749.000
28.72000 710.000
28.76000 713.000
28.80000 688.000
28.84000 722.000
28.88000 679.000
28.92000 695.000
28.96000 731.000
29.00000 766.000
29.04000 706.000
29.08000 712.000
29.12000 697.000
29.16000 777.000
29.20000 749.000
29.24000 664.000
29.28000 634.000
29.32000 688.000
29.36000 684.000
29.40000 660.000
29.44000 677.000
29.48000 692.000
29.52000 644.000
29.56000 699.000
29.60000 674.000
29.64000 621.000
29.68000 613.000
29.72000 636.000
29.76000 668.000
29.80000 700.000
29.84000 664.000
29.88000 664.000
29.92000 611.000
29.96000 618.000
30.00000 609.000
30.04000 647.000
30.08000 682.000
30.12000 642.000
30.16000 644.000
30.20000 624.000
30.24000 691.000
30.28000 674.000
30.32000 720.000
30.36000 643.000
30.40000 663.000
30.44000 659.000
30.48000 629.000
30.52000 620.000
30.56000 673.000
30.60000 696.000
30.64000 648.000
30.68000 664.000
30.72000 651.000
30.76000 654.000
30.80000 669.000
30.84000 704.000
30.88000 585.000
30.92000 649.000
30.96000 661.000
31.00000 671.000
31.04000 641.000
31.08000 712.000
31.12000 691.000
31.16000 652.000
31.20000 688.000
31.24000 678.000
31.28000 651.000
31.32000 635.000
31.36000 696.000
31.40000 743.000
31.44000 803.000
31.48000 909.000
31.52000 995.000
31.56000 1242.000
31.60000 1426.000
31.64000 1684.000
31.68000 2074.000
31.72000 2041.000
31.76000 1857.000
31.80000 1564.000
31.84000 1172.000
31.88000 876.000
31.92000 778.000
31.96000 688.000
32.00000 668.000
32.04000 618.000
32.08000 638.000
32.12000 632.000
32.16000 645.000
32.20000 649.000
32.24000 634.000
32.28000 619.000
32.32000 613.000
32.36000 591.000
32.40000 585.000
32.44000 576.000
32.48000 568.000
32.52000 573.000
32.56000 579.000
32.60000 571.000
32.64000 613.000
32.68000 593.000
32.72000 578.000
32.76000 537.000
32.80000 596.000
32.84000 560.000
32.88000 520.000
32.92000 547.000
32.96000 577.000
33.00000 582.000
33.04000 561.000
33.08000 519.000
33.12000 535.000
33.16000 577.000
33.20000 554.000
33.24000 554.000
33.28000 531.000
33.32000 503.000
33.36000 521.000
33.40000 537.000
33.44000 496.000
33.48000 548.000
33.52000 499.000
33.56000 573.000
33.60000 561.000
33.64000 494.000
33.68000 526.000
33.72000 495.000
33.76000 500.000
33.80000 527.000
33.84000 502.000
33.88000 533.000
33.92000 503.000
33.96000 490.000
34.00000 472.000
34.04000 448.000
34.08000 464.000
34.12000 478.000
34.16000 480.000
34.20000 564.000
34.24000 496.000
34.28000 520.000
34.32000 491.000
34.36000 495.000
34.40000 502.000
34.44000 500.000
34.48000 516.000
34.52000 535.000
34.56000 558.000
34.60000 598.000
34.64000 652.000
34.68000 712.000
34.72000 790.000
34.76000 983.000
34.80000 1080.000
34.84000 1096.000
34.88000 1111.000
34.92000 888.000
34.96000 806.000
35.00000 662.000
35.04000 546.000
35.08000 547.000
35.12000 491.000
35.16000 457.000
35.20000 489.000
35.24000 469.000
35.28000 482.000
35.32000 473.000
35.36000 422.000
35.40000 490.000
35.44000 434.000
35.48000 461.000
35.52000 406.000
35.56000 463.000
35.60000 465.000
35.64000 462.000
35.68000 433.000
35.72000 427.000
35.76000 403.000
35.80000 411.000
35.84000 410.000
35.88000 413.000
35.92000 442.000
35.96000 444.000
36.00000 392.000
36.04000 422.000
36.08000 425.000
36.12000 389.000
36.16000 422.000
36.20000 463.000
36.24000 438.000
36.28000 472.000
36.32000 388.000
36.36000 402.000
36.40000 432.000
36.44000 429.000
36.48000 456.000
36.52000 415.000
36.56000 427.000
36.60000 431.000
36.64000 398.000
36.68000 430.000
36.72000 403.000
36.76000 370.000
36.80000 420.000
36.84000 425.000
36.88000 414.000
36.92000 396.000
36.96000 413.000
37.00000 406.000
37.04000 410.000
37.08000 417.000
37.12000 444.000
37.16000 400.000
37.20000 390.000
37.24000 366.000
37.28000 429.000
37.32000 400.000
37.36000 348.000
37.40000 406.000
37.44000 380.000
37.48000 386.000
37.52000 396.000
37.56000 422.000
37.60000 374.000
37.64000 390.000
37.68000 357.000
37.72000 365.000
37.76000 383.000
37.80000 375.000
37.84000 368.000
37.88000 390.000
37.92000 380.000
37.96000 377.000
38.00000 381.000
38.04000 372.000
38.08000 395.000
38.12000 401.000
38.16000 386.000
38.20000 412.000
38.24000 382.000
38.28000 362.000
38.32000 412.000
38.36000 411.000
38.40000 420.000
38.44000 422.000
38.48000 463.000
38.52000 438.000
38.56000 402.000
38.60000 441.000
38.64000 495.000
38.68000 478.000
38.72000 441.000
38.76000 435.000
38.80000 425.000
38.84000 438.000
38.88000 420.000
38.92000 396.000
38.96000 407.000
39.00000 358.000
39.04000 390.000
39.08000 409.000
39.12000 376.000
39.16000 363.000
39.20000 373.000
39.24000 426.000
39.28000 377.000
39.32000 405.000
39.36000 393.000
39.40000 380.000
39.44000 457.000
39.48000 486.000
39.52000 472.000
39.56000 440.000
39.60000 472.000
39.64000 437.000
39.68000 443.000
39.72000 407.000
39.76000 448.000
39.80000 397.000
39.84000 386.000
39.88000 396.000
39.92000 405.000
39.96000 403.000
40.00000 429.000
40.04000 435.000
40.08000 436.000
40.12000 458.000
40.16000 495.000
40.20000 598.000
40.24000 733.000
40.28000 884.000
40.32000 1187.000
40.36000 1444.000
40.40000 1858.000
40.44000 2092.000
40.48000 1840.000
40.52000 1621.000
40.56000 1329.000
40.60000 979.000
40.64000 751.000
40.68000 590.000
40.72000 501.000
40.76000 429.000
40.80000 466.000
40.84000 412.000
40.88000 395.000
40.92000 431.000
40.96000 406.000
41.00000 400.000
41.04000 387.000
41.08000 425.000
41.12000 419.000
41.16000 458.000
41.20000 441.000
41.24000 434.000
41.28000 455.000
41.32000 425.000
41.36000 399.000
41.40000 414.000
41.44000 431.000
41.48000 385.000
41.52000 370.000
41.56000 424.000
41.60000 416.000
41.64000 424.000
41.68000 385.000
41.72000 428.000
41.76000 406.000
41.80000 399.000
41.84000 375.000
41.88000 400.000
41.92000 403.000
41.96000 387.000
42.00000 363.000
42.04000 362.000
42.08000 399.000
42.12000 360.000
42.16000 364.000
42.20000 366.000
42.24000 359.000
42.28000 369.000
42.32000 386.000
42.36000 377.000
42.40000 360.000
42.44000 392.000
42.48000 418.000
42.52000 412.000
42.56000 394.000
42.60000 431.000
42.64000 397.000
42.68000 428.000
42.72000 430.000
42.76000 486.000
42.80000 524.000
42.84000 612.000
42.88000 679.000
42.92000 836.000
42.96000 1008.000
43.00000 1078.000
43.04000 1069.000
43.08000 1005.000
43.12000 855.000
43.16000 701.000
43.20000 566.000
43.24000 450.000
43.28000 451.000
43.32000 394.000
43.36000 412.000
43.40000 392.000
43.44000 399.000
43.48000 410.000
43.52000 390.000
43.56000 367.000
43.60000 389.000
43.64000 383.000
43.68000 387.000
43.72000 369.000
43.76000 344.000
43.80000 364.000
43.84000 379.000
43.88000 374.000
43.92000 347.000
43.96000 356.000
44.00000 377.000
44.04000 342.000
44.08000 391.000
44.12000 384.000
44.16000 339.000
44.20000 329.000
44.24000 354.000
44.28000 352.000
44.32000 367.000
44.36000 367.000
44.40000 352.000
44.44000 359.000
44.48000 364.000
44.52000 347.000
44.56000 398.000
44.60000 386.000
44.64000 332.000
44.68000 348.000
44.72000 379.000
44.76000 384.000
44.80000 385.000
44.84000 338.000
44.88000 389.000
44.92000 350.000
44.96000 362.000
45.00000 353.000
45.04000 339.000
45.08000 342.000
45.12000 354.000
45.16000 371.000
45.20000 366.000
45.24000 369.000
45.28000 358.000
45.32000 363.000
45.36000 387.000
45.40000 368.000
45.44000 385.000
45.48000 367.000
45.52000 343.000
45.56000 376.000
45.60000 342.000
45.64000 348.000
45.68000 340.000
45.72000 350.000
45.76000 361.000
45.80000 333.000
45.84000 350.000
45.88000 346.000
45.92000 332.000
45.96000 346.000
46.00000 346.000
46.04000 366.000
46.08000 339.000
46.12000 334.000
46.16000 336.000
46.20000 373.000
46.24000 316.000
46.28000 328.000
46.32000 327.000
46.36000 326.000
46.40000 324.000
46.44000 282.000
46.48000 349.000
46.52000 306.000
46.56000 345.000
46.60000 354.000
46.64000 328.000
46.68000 338.000
46.72000 330.000
46.76000 327.000
46.80000 336.000
46.84000 308.000
46.88000 330.000
46.92000 333.000
46.96000 327.000
47.00000 331.000
47.04000 323.000
47.08000 361.000
47.12000 346.000
47.16000 310.000
47.20000 319.000
47.24000 325.000
47.28000 305.000
47.32000 308.000
47.36000 314.000
47.40000 354.000
47.44000 327.000
47.48000 354.000
47.52000 352.000
47.56000 362.000
47.60000 310.000
47.64000 305.000
47.68000 339.000
47.72000 330.000
47.76000 350.000
47.80000 391.000
47.84000 363.000
47.88000 372.000
47.92000 348.000
47.96000 328.000
48.00000 320.000
48.04000 318.000
48.08000 305.000
48.12000 335.000
48.16000 318.000
48.20000 312.000
48.24000 318.000
48.28000 329.000
48.32000 305.000
48.36000 331.000
48.40000 332.000
48.44000 312.000
48.48000 286.000
48.52000 341.000
48.56000 288.000
48.60000 300.000
48.64000 342.000
48.68000 299.000
48.72000 337.000
48.76000 308.000
48.80000 305.000
48.84000 331.000
48.88000 315.000
48.92000 313.000
48.96000 271.000
49.00000 316.000
49.04000 304.000
49.08000 334.000
49.12000 322.000
49.16000 334.000
49.20000 309.000
49.24000 355.000
49.28000 338.000
49.32000 325.000
49.36000 326.000
49.40000 370.000
49.44000 303.000
49.48000 334.000
49.52000 337.000
49.56000 308.000
49.60000 306.000
49.64000 349.000
49.68000 338.000
49.72000 315.000
49.76000 301.000
49.80000 321.000
49.84000 333.000
49.88000 371.000
49.92000 402.000
49.96000 470.000
50.00000 503.000
50.04000 633.000
50.08000 625.000
50.12000 602.000
50.16000 575.000
50.20000 479.000
50.24000 476.000
50.28000 442.000
50.32000 368.000
50.36000 328.000
50.40000 345.000
50.44000 321.000
50.48000 351.000
50.52000 308.000
50.56000 300.000
50.60000 266.000
50.64000 308.000
50.68000 291.000
50.72000 311.000
50.76000 325.000
50.80000 323.000
50.84000 275.000
50.88000 328.000
50.92000 319.000
50.96000 332.000
51.00000 299.000
51.04000 320.000
51.08000 319.000
51.12000 313.000
51.16000 311.000
51.20000 343.000
51.24000 331.000
51.28000 315.000
51.32000 312.000
51.36000 308.000
51.40000 311.000
51.44000 305.000
51.48000 324.000
51.52000 300.000
51.56000 296.000
51.60000 319.000
51.64000 331.000
51.68000 301.000
51.72000 284.000
51.76000 318.000
51.80000 301.000
51.84000 309.000
51.88000 330.000
51.92000 303.000
51.96000 328.000
52.00000 298.000
52.04000 347.000
52.08000 367.000
52.12000 340.000
52.16000 427.000
52.20000 436.000
52.24000 507.000
52.28000 478.000
52.32000 465.000
52.36000 468.000
52.40000 448.000
52.44000 407.000
52.48000 401.000
52.52000 366.000
52.56000 368.000
52.60000 326.000
52.64000 305.000
52.68000 317.000
52.72000 298.000
52.76000 294.000
52.80000 291.000
52.84000 308.000
52.88000 303.000
52.92000 337.000
52.96000 298.000
53.00000 337.000
53.04000 296.000
53.08000 312.000
53.12000 284.000
53.16000 306.000
53.20000 296.000
53.24000 319.000
53.28000 315.000
53.32000 324.000
53.36000 314.000
53.40000 338.000
53.44000 291.000
53.48000 281.000
53.52000 293.000
53.56000 311.000
53.60000 278.000
53.64000 292.000
53.68000 290.000
53.72000 344.000
53.76000 291.000
53.80000 300.000
53.84000 297.000
53.88000 295.000
53.92000 279.000
53.96000 278.000
54.00000 269.000
54.04000 296.000
54.08000 307.000
54.12000 304.000
54.16000 283.000
54.20000 316.000
54.24000 319.000
54.28000 328.000
54.32000 321.000
54.36000 331.000
54.40000 332.000
54.44000 366.000
54.48000 340.000
54.52000 331.000
54.56000 322.000
54.60000 336.000
54.64000 361.000
54.68000 358.000
54.72000 353.000
54.76000 352.000
54.80000 317.000
54.84000 346.000
54.88000 324.000
54.92000 313.000
54.96000 300.000
55.00000 305.000
55.04000 305.000
55.08000 271.000
55.12000 303.000
55.16000 279.000
55.20000 304.000
55.24000 273.000
55.28000 264.000
55.32000 283.000
55.36000 298.000
55.40000 312.000
55.44000 335.000
55.48000 287.000
55.52000 305.000
55.56000 304.000
55.60000 282.000
55.64000 308.000
55.68000 308.000
55.72000 299.000
55.76000 267.000
55.80000 295.000
55.84000 298.000
55.88000 309.000
55.92000 316.000
55.96000 289.000
56.00000 277.000
56.04000 268.000
56.08000 289.000
56.12000 292.000
56.16000 321.000
56.20000 294.000
56.24000 285.000
56.28000 285.000
56.32000 287.000
56.36000 304.000
56.40000 307.000
56.44000 309.000
56.48000 333.000
56.52000 294.000
56.56000 318.000
56.60000 314.000
56.64000 300.000
56.68000 284.000
56.72000 291.000
56.76000 299.000
56.80000 300.000
56.84000 285.000
56.88000 282.000
56.92000 291.000
56.96000 314.000
57.00000 295.000
57.04000 287.000
57.08000 305.000
57.12000 302.000
57.16000 276.000
57.20000 296.000
57.24000 293.000
57.28000 290.000
57.32000 274.000
57.36000 315.000
57.40000 336.000
57.44000 295.000
57.48000 316.000
57.52000 301.000
57.56000 322.000
57.60000 271.000
57.64000 278.000
57.68000 285.000
57.72000 315.000
57.76000 299.000
57.80000 304.000
57.84000 296.000
57.88000 294.000
57.92000 279.000
57.96000 270.000
58.00000 304.000
58.04000 305.000
58.08000 297.000
58.12000 325.000
58.16000 301.000
58.20000 303.000
58.24000 314.000
58.28000 345.000
58.32000 293.000
58.36000 301.000
58.40000 331.000
58.44000 342.000
58.48000 332.000
58.52000 333.000
58.56000 325.000
58.60000 347.000
58.64000 320.000
58.68000 325.000
58.72000 291.000
58.76000 294.000
58.80000 305.000
58.84000 300.000
58.88000 301.000
58.92000 277.000
58.96000 319.000
59.00000 294.000
59.04000 298.000
59.08000 331.000
59.12000 275.000
59.16000 321.000
59.20000 308.000
59.24000 248.000
59.28000 303.000
59.32000 308.000
59.36000 304.000
59.40000 319.000
59.44000 284.000
59.48000 306.000
59.52000 304.000
59.56000 284.000
59.60000 305.000
59.64000 319.000
59.68000 313.000
59.72000 294.000
59.76000 275.000
59.80000 321.000
59.84000 307.000
59.88000 309.000
59.92000 284.000