File: XRD/13.xy
5.00000 1050.000
5.04000 1050.000
5.08000 1030.000
5.12000 1046.000
5.16000 1020.000
5.20000 1028.000
5.24000 1002.000
5.28000 970.000
5.32000 948.000
5.36000 975.000
5.40000 1037.000
5.44000 952.000
5.48000 978.000
5.52000 1021.000
5.56000 962.000
5.60000 930.000
5.64000 931.000
5.68000 923.000
5.72000 976.000
5.76000 1083.000
5.80000 959.000
5.84000 942.000
5.88000 939.000
5.92000 909.000
5.96000 941.000
6.00000 941.000
6.04000 909.000
6.08000 913.000
6.12000 863.000
6.16000 864.000
6.20000 831.000
6.24000 840.000
6.28000 833.000
6.32000 806.000
6.36000 805.000
6.40000 826.000
6.44000 794.000
6.48000 894.000
6.52000 813.000
6.56000 777.000
6.60000 756.000
6.64000 775.000
6.68000 776.000
6.72000 766.000
6.76000 768.000
6.80000 768.000
6.84000 765.000
6.88000 745.000
6.92000 739.000
6.96000 723.000
7.00000 710.000
7.04000 720.000
7.08000 719.000
7.12000 747.000
7.16000 717.000
7.20000 774.000
7.24000 706.000
7.28000 693.000
7.32000 699.000
7.36000 689.000
7.40000 666.000
7.44000 702.000
7.48000 671.000
7.52000 652.000
7.56000 682.000
7.60000 688.000
7.64000 685.000
7.68000 648.000
7.72000 672.000
7.76000 690.000
7.80000 666.000
7.84000 657.000
7.88000 656.000
7.92000 663.000
7.96000 714.000
8.00000 615.000
8.04000 719.000
8.08000 695.000
8.12000 665.000
8.16000 658.000
8.20000 679.000
8.24000 615.000
8.28000 653.000
8.32000 603.000
8.36000 621.000
8.40000 665.000
8.44000 604.000
8.48000 636.000
8.52000 590.000
8.56000 610.000
8.60000 660.000
8.64000 634.000
8.68000 604.000
8.72000 607.000
8.76000 640.000
8.80000 643.000
8.84000 595.000
8.88000 622.000
8.92000 612.000
8.96000 627.000
9.00000 603.000
9.04000 608.000
9.08000 579.000
9.12000 560.000
9.16000 601.000
9.20000 614.000
9.24000 589.000
9.28000 600.000
9.32000 535.000
9.36000 571.000
9.40000 567.000
9.44000 605.000
9.48000 584.000
9.52000 597.000
9.56000 612.000
9.60000 587.000
9.64000 571.000
9.68000 614.000
9.72000 649.000
9.76000 657.000
9.80000 692.000
9.84000 645.000
9.88000 785.000
9.92000 840.000
9.96000 933.000
10.00000 1017.000
10.04000 1089.000
10.08000 1035.000
10.12000 1085.000
10.16000 1000.000
10.20000 977.000
10.24000 879.000
10.28000 748.000
10.32000 620.000
10.36000 582.000
10.40000 531.000
10.44000 538.000
10.48000 539.000
10.52000 557.000
10.56000 547.000
10.60000 547.000
10.64000 512.000
10.68000 541.000
10.72000 530.000
10.76000 533.000
10.80000 511.000
10.84000 468.000
10.88000 469.000
10.92000 517.000
10.96000 499.000
11.00000 493.000
11.04000 492.000
11.08000 519.000
11.12000 471.000
11.16000 427.000
11.20000 476.000
11.24000 499.000
11.28000 511.000
11.32000 496.000
11.36000 485.000
11.40000 524.000
11.44000 508.000
11.48000 465.000
11.52000 519.000
11.56000 516.000
11.60000 547.000
11.64000 503.000
11.68000 539.000
11.72000 520.000
11.76000 507.000
11.80000 503.000
11.84000 507.000
11.88000 498.000
11.92000 521.000
11.96000 484.000
12.00000 519.000
12.04000 501.000
12.08000 438.000
12.12000 476.000
12.16000 498.000
12.20000 455.000
12.24000 493.000
12.28000 506.000
12.32000 518.000
12.36000 509.000
12.40000 498.000
12.44000 495.000
12.48000 558.000
12.52000 542.000
12.56000 526.000
12.60000 541.000
12.64000 555.000
12.68000 552.000
12.72000 535.000
12.76000 490.000
12.80000 495.000
12.84000 505.000
12.88000 511.000
12.92000 527.000
12.96000 505.000
13.00000 536.000
13.04000 513.000
13.08000 537.000
13.12000 581.000
13.16000 600.000
13.20000 683.000
13.24000 705.000
13.28000 816.000
13.32000 911.000
13.36000 1031.000
13.40000 989.000
13.44000 910.000
13.48000 854.000
13.52000 910.000
13.56000 934.000
13.60000 961.000
13.64000 1032.000
13.68000 1142.000
13.72000 1274.000
13.76000 1436.000
13.80000 1690.000
13.84000 1981.000
13.88000 2296.000
13.92000 2779.000
13.96000 3548.000
14.00000 4350.000
14.04000 5087.000
14.08000 5601.000
14.12000 5029.000
14.16000 3341.000
14.20000 1958.000
14.24000 1317.000
14.28000 947.000
14.32000 785.000
14.36000 652.000
14.40000 580.000
14.44000 581.000
14.48000 550.000
14.52000 494.000
14.56000 492.000
14.60000 535.000
14.64000 492.000
14.68000 486.000
14.72000 450.000
14.76000 488.000
14.80000 496.000
14.84000 440.000
14.88000 473.000
14.92000 450.000
14.96000 442.000
15.00000 430.000
15.04000 460.000
15.08000 435.000
15.12000 453.000
15.16000 486.000
15.20000 458.000
15.24000 444.000
15.28000 455.000
15.32000 473.000
15.36000 440.000
15.40000 483.000
15.44000 417.000
15.48000 439.000
15.52000 454.000
15.56000 463.000
15.60000 436.000
15.64000 481.000
15.68000 445.000
15.72000 443.000
15.76000 440.000
15.80000 460.000
15.84000 450.000
15.88000 422.000
15.92000 436.000
15.96000 465.000
16.00000 447.000
16.04000 429.000
16.08000 451.000
16.12000 453.000
16.16000 450.000
16.20000 470.000
16.24000 474.000
16.28000 481.000
16.32000 430.000
16.36000 456.000
16.40000 454.000
16.44000 501.000
16.48000 439.000
16.52000 486.000
16.56000 463.000
16.60000 465.000
16.64000 434.000
16.68000 513.000
16.72000 478.000
16.76000 513.000
16.80000 474.000
16.84000 456.000
16.88000 503.000
16.92000 488.000
16.96000 498.000
17.00000 538.000
17.04000 496.000
17.08000 510.000
17.12000 443.000
17.16000 473.000
17.20000 499.000
17.24000 499.000
17.28000 567.000
17.32000 548.000
17.36000 587.000
17.40000 523.000
17.44000 529.000
17.48000 555.000
17.52000 539.000
17.56000 484.000
17.60000 514.000
17.64000 502.000
17.68000 507.000
17.72000 483.000
17.76000 516.000
17.80000 506.000
17.84000 545.000
17.88000 521.000
17.92000 555.000
17.96000 529.000
18.00000 552.000
18.04000 546.000
18.08000 565.000
18.12000 544.000
18.16000 567.000
18.20000 576.000
18.24000 530.000
18.28000 542.000
18.32000 528.000
18.36000 559.000
18.40000 499.000
18.44000 491.000
18.48000 532.000
18.52000 556.000
18.56000 551.000
18.60000 543.000
18.64000 566.000
18.68000 558.000
18.72000 580.000
18.76000 556.000
18.80000 589.000
18.84000 545.000
18.88000 577.000
18.92000 540.000
18.96000 543.000
19.00000 526.000
19.04000 571.000
19.08000 530.000
19.12000 528.000
19.16000 567.000
19.20000 551.000
19.24000 565.000
19.28000 569.000
19.32000 589.000
19.36000 592.000
19.40000 601.000
19.44000 665.000
19.48000 554.000
19.52000 647.000
19.56000 595.000
19.60000 673.000
19.64000 692.000
19.68000 701.000
19.72000 785.000
19.76000 837.000
19.80000 986.000
19.84000 1127.000
19.88000 1325.000
19.92000 1380.000
19.96000 1615.000
20.00000 1549.000
20.04000 1356.000
20.08000 1106.000
20.12000 884.000
20.16000 772.000
20.20000 688.000
20.24000 639.000
20.28000 693.000
20.32000 624.000
20.36000 632.000
20.40000 715.000
20.44000 646.000
20.48000 654.000
20.52000 686.000
20.56000 658.000
20.60000 683.000
20.64000 699.000
20.68000 652.000
20.72000 655.000
20.76000 649.000
20.80000 645.000
20.84000 642.000
20.88000 624.000
20.92000 691.000
20.96000 668.000
21.00000 675.000
21.04000 681.000
21.08000 650.000
21.12000 661.000
21.16000 677.000
21.20000 695.000
21.24000 695.000
21.28000 675.000
21.32000 670.000
21.36000 702.000
21.40000 645.000
21.44000 696.000
21.48000 685.000
21.52000 691.000
21.56000 692.000
21.60000 669.000
21.64000 743.000
21.68000 748.000
21.72000 749.000
21.76000 718.000
21.80000 722.000
21.84000 744.000
21.88000 712.000
21.92000 741.000
21.96000 697.000
22.00000 744.000
22.04000 768.000
22.08000 789.000
22.12000 794.000
22.16000 827.000
22.20000 820.000
22.24000 824.000
22.28000 806.000
22.32000 784.000
22.36000 740.000
22.40000 784.000
22.44000 729.000
22.48000 743.000
22.52000 789.000
22.56000 725.000
22.60000 738.000
22.64000 779.000
22.68000 811.000
22.72000 838.000
22.76000 821.000
22.80000 829.000
22.84000 822.000
22.88000 837.000
22.92000 846.000
22.96000 840.000
23.00000 904.000
23.04000 920.000
23.08000 929.000
23.12000 1019.000
23.16000 1023.000
23.20000 1076.000
23.24000 1085.000
23.28000 1008.000
23.32000 924.000
23.36000 800.000
23.40000 809.000
23.44000 772.000
23.48000 809.000
23.52000 764.000
23.56000 748.000
23.60000 741.000
23.64000 748.000
23.68000 837.000
23.72000 748.000
23.76000 766.000
23.80000 764.000
23.84000 786.000
23.88000 773.000
23.92000 760.000
23.96000 771.000
24.00000 819.000
24.04000 817.000
24.08000 791.000
24.12000 779.000
24.16000 880.000
24.20000 894.000
24.24000 950.000
24.28000 934.000
24.32000 1034.000
24.36000 1155.000
24.40000 1341.000
24.44000 1434.000
24.48000 1711.000
24.52000 1862.000
24.56000 1762.000
24.60000 1517.000
24.64000 1234.000
24.68000 1068.000
24.72000 875.000
24.76000 870.000
24.80000 781.000
24.84000 819.000
24.88000 788.000
24.92000 780.000
24.96000 769.000
25.00000 767.000
25.04000 810.000
25.08000 833.000
25.12000 789.000
25.16000 756.000
25.20000 821.000
25.24000 791.000
25.28000 809.000
25.32000 798.000
25.36000 726.000
25.40000 777.000
25.44000 778.000
25.48000 805.000
25.52000 762.000
25.56000 804.000
25.60000 783.000
25.64000 768.000
25.68000 766.000
25.72000 775.000
25.76000 861.000
25.80000 789.000
25.84000 755.000
25.88000 787.000
25.92000 787.000
25.96000 774.000
26.00000 821.000
26.04000 816.000
26.08000 795.000
26.12000 769.000
26.16000 767.000
26.20000 772.000
26.24000 740.000
26.28000 776.000
26.32000 766.000
26.36000 787.000
26.40000 794.000
26.44000 833.000
26.48000 843.000
26.52000 826.000
26.56000 848.000
26.60000 875.000
26.64000 855.000
26.68000 893.000
26.72000 976.000
26.76000 975.000
26.80000 1080.000
26.84000 1066.000
26.88000 1237.000
26.92000 1228.000
26.96000 1312.000
27.00000 1316.000
27.04000 1395.000
27.08000 1326.000
27.12000 1245.000
27.16000 1119.000
27.20000 1133.000
27.24000 989.000
27.28000 862.000
27.32000 868.000
27.36000 813.000
27.40000 799.000
27.44000 803.000
27.48000 787.000
27.52000 690.000
27.56000 758.000
27.60000 796.000
27.64000 769.000
27.68000 810.000
27.72000 733.000
27.76000 788.000
27.80000 818.000
27.84000 802.000
27.88000 875.000
27.92000 831.000
27.96000 863.000
28.00000 933.000
28.04000 1013.000
28.08000 1099.000
28.12000 1221.000
28.16000 1434.000
28.20000 1558.000
28.24000 1796.000
28.28000 2175.000
28.32000 2655.000
28.36000 3099.000
28.40000 3427.000
28.44000 3054.000
28.48000 2399.000
28.52000 1859.000
28.56000 1333.000
28.60000 1047.000
28.64000 913.000
28.68000 821.000
28.72000 805.000
28.76000 831.000
28.80000 768.000
28.84000 780.000
28.88000 787.000
28.92000 738.000
28.96000 714.000
29.00000 705.000
29.04000 756.000
29.08000 731.000
29.12000 698.000
29.16000 676.000
29.20000 721.000
29.24000 655.000
29.28000 689.000
29.32000 718.000
29.36000 724.000
29.40000 666.000
29.44000 698.000
29.48000 727.000
29.52000 671.000
29.56000 652.000
29.60000 687.000
29.64000 723.000
29.68000 691.000
29.72000 664.000
29.76000 675.000
29.80000 670.000
29.84000 662.000
29.88000 705.000
29.92000 723.000
29.96000 712.000
30.00000 663.000
30.04000 677.000
30.08000 651.000
30.12000 669.000
30.16000 661.000
30.20000 696.000
30.24000 679.000
30.28000 756.000
30.32000 650.000
30.36000 666.000
30.40000 740.000
30.44000 692.000
30.48000 706.000
30.52000 703.000
30.56000 687.000
30.60000 679.000
30.64000 680.000
30.68000 690.000
30.72000 693.000
30.76000 637.000
30.80000 651.000
30.84000 689.000
30.88000 676.000
30.92000 660.000
30.96000 651.000
31.00000 664.000
31.04000 707.000
31.08000 703.000
31.12000 713.000
31.16000 649.000
31.20000 667.000
31.24000 655.000
31.28000 660.000
31.32000 676.000
31.36000 650.000
31.40000 721.000
31.44000 721.000
31.48000 761.000
31.52000 753.000
31.56000 805.000
31.60000 939.000
31.64000 1035.000
31.68000 1282.000
31.72000 1549.000
31.76000 1922.000
31.80000 2155.000
31.84000 2500.000
31.88000 2228.000
31.92000 1797.000
31.96000 1436.000
32.00000 1125.000
32.04000 930.000
32.08000 835.000
32.12000 721.000
32.16000 720.000
32.20000 779.000
32.24000 689.000
32.28000 667.000
32.32000 648.000
32.36000 706.000
32.40000 579.000
32.44000 627.000
32.48000 624.000
32.52000 574.000
32.56000 611.000
32.60000 571.000
32.64000 580.000
32.68000 599.000
32.72000 573.000
32.76000 557.000
32.80000 581.000
32.84000 586.000
32.88000 578.000
32.92000 587.000
32.96000 605.000
33.00000 588.000
33.04000 557.000
33.08000 568.000
33.12000 545.000
33.16000 601.000
33.20000 573.000
33.24000 585.000
33.28000 600.000
33.32000 535.000
33.36000 573.000
33.40000 568.000
33.44000 631.000
33.48000 570.000
33.52000 563.000
33.56000 566.000
33.60000 536.000
33.64000 528.000
33.68000 552.000
33.72000 518.000
33.76000 507.000
33.80000 512.000
33.84000 509.000
33.88000 540.000
33.92000 499.000
33.96000 528.000
34.00000 515.000
34.04000 518.000
34.08000 490.000
34.12000 519.000
34.16000 504.000
34.20000 543.000
34.24000 521.000
34.28000 517.000
34.32000 523.000
34.36000 504.000
34.40000 536.000
34.44000 531.000
34.48000 502.000
34.52000 496.000
34.56000 545.000
34.60000 515.000
34.64000 489.000
34.68000 494.000
34.72000 544.000
34.76000 595.000
34.80000 651.000
34.84000 689.000
34.88000 756.000
34.92000 842.000
34.96000 865.000
35.00000 959.000
35.04000 815.000
35.08000 713.000
35.12000 615.000
35.16000 640.000
35.20000 503.000
35.24000 524.000
35.28000 458.000
35.32000 504.000
35.36000 454.000
35.40000 473.000
35.44000 460.000
35.48000 474.000
35.52000 473.000
35.56000 444.000
35.60000 434.000
35.64000 476.000
35.68000 423.000
35.72000 473.000
35.76000 448.000
35.80000 431.000
35.84000 447.000
35.88000 429.000
35.92000 423.000
35.96000 437.000
36.00000 391.000
36.04000 440.000
36.08000 476.000
36.12000 455.000
36.16000 432.000
36.20000 485.000
36.24000 420.000
36.28000 425.000
36.32000 472.000
36.36000 461.000
36.40000 424.000
36.44000 428.000
36.48000 427.000
36.52000 460.000
36.56000 419.000
36.60000 453.000
36.64000 442.000
36.68000 453.000
36.72000 468.000
36.76000 492.000
36.80000 451.000
36.84000 457.000
36.88000 440.000
36.92000 492.000
36.96000 456.000
37.00000 472.000
37.04000 471.000
37.08000 492.000
37.12000 424.000
37.16000 426.000
37.20000 479.000
37.24000 440.000
37.28000 424.000
37.32000 390.000
37.36000 424.000
37.40000 378.000
37.44000 413.000
37.48000 413.000
37.52000 413.000
37.56000 389.000
37.60000 365.000
37.64000 361.000
37.68000 392.000
37.72000 397.000
37.76000 409.000
37.80000 424.000
37.84000 421.000
37.88000 427.000
37.92000 397.000
37.96000 376.000
38.00000 366.000
38.04000 423.000
38.08000 423.000
38.12000 388.000
38.16000 388.000
38.20000 419.000
38.24000 414.000
38.28000 448.000
38.32000 470.000
38.36000 478.000
38.40000 510.000
38.44000 523.000
38.48000 547.000
38.52000 551.000
38.56000 526.000
38.60000 508.000
38.64000 509.000
38.68000 452.000
38.72000 410.000
38.76000 422.000
38.80000 392.000
38.84000 405.000
38.88000 389.000
38.92000 378.000
38.96000 425.000
39.00000 359.000
39.04000 377.000
39.08000 345.000
39.12000 381.000
39.16000 362.000
39.20000 363.000
39.24000 403.000
39.28000 396.000
39.32000 400.000
39.36000 377.000
39.40000 399.000
39.44000 408.000
39.48000 411.000
39.52000 413.000
39.56000 378.000
39.60000 378.000
39.64000 399.000
39.68000 388.000
39.72000 391.000
39.76000 405.000
39.80000 379.000
39.84000 380.000
39.88000 373.000
39.92000 405.000
39.96000 411.000
40.00000 386.000
40.04000 376.000
40.08000 393.000
40.12000 480.000
40.16000 432.000
40.20000 425.000
40.24000 483.000
40.28000 430.000
40.32000 561.000
40.36000 573.000
40.40000 705.000
40.44000 802.000
40.48000 1062.000
40.52000 1286.000
40.56000 1623.000
40.60000 1745.000
40.64000 1727.000
40.68000 1504.000
40.72000 1252.000
40.76000 992.000
40.80000 790.000
40.84000 589.000
40.88000 518.000
40.92000 504.000
40.96000 444.000
41.00000 395.000
41.04000 441.000
41.08000 445.000
41.12000 424.000
41.16000 440.000
41.20000 387.000
41.24000 380.000
41.28000 367.000
41.32000 395.000
41.36000 421.000
41.40000 416.000
41.44000 368.000
41.48000 435.000
41.52000 413.000
41.56000 392.000
41.60000 419.000
41.64000 373.000
41.68000 381.000
41.72000 425.000
41.76000 398.000
41.80000 382.000
41.84000 406.000
41.88000 417.000
41.92000 393.000
41.96000 425.000
42.00000 369.000
42.04000 379.000
42.08000 418.000
42.12000 374.000
42.16000 363.000
42.20000 391.000
42.24000 402.000
42.28000 409.000
42.32000 364.000
42.36000 381.000
42.40000 389.000
42.44000 417.000
42.48000 363.000
42.52000 392.000
42.56000 408.000
42.60000 380.000
42.64000 402.000
42.68000 421.000
42.72000 413.000
42.76000 419.000
42.80000 404.000
42.84000 460.000
42.88000 430.000
42.92000 436.000
42.96000 505.000
43.00000 563.000
43.04000 655.000
43.08000 785.000
43.12000 1022.000
43.16000 1162.000
43.20000 1226.000
43.24000 1079.000
43.28000 957.000
43.32000 915.000
43.36000 685.000
43.40000 619.000
43.44000 464.000
43.48000 410.000
43.52000 433.000
43.56000 424.000
43.60000 369.000
43.64000 387.000
43.68000 357.000
43.72000 363.000
43.76000 399.000
43.80000 390.000
43.84000 399.000
43.88000 414.000
43.92000 412.000
43.96000 456.000
44.00000 412.000
44.04000 412.000
44.08000 385.000
44.12000 376.000
44.16000 408.000
44.20000 421.000
44.24000 359.000
44.28000 388.000
44.32000 389.000
44.36000 345.000
44.40000 392.000
44.44000 367.000
44.48000 387.000
44.52000 373.000
44.56000 402.000
44.60000 352.000
44.64000 393.000
44.68000 400.000
44.72000 373.000
44.76000 397.000
44.80000 384.000
44.84000 400.000
44.88000 391.000
44.92000 410.000
44.96000 389.000
45.00000 390.000
45.04000 431.000
45.08000 376.000
45.12000 379.000
45.16000 396.000
45.20000 433.000
45.24000 424.000
45.28000 386.000
45.32000 351.000
45.36000 411.000
45.40000 407.000
45.44000 432.000
45.48000 439.000
45.52000 427.000
45.56000 456.000
45.60000 430.000
45.64000 411.000
45.68000 427.000
45.72000 412.000
45.76000 377.000
45.80000 347.000
45.84000 373.000
45.88000 366.000
45.92000 342.000
45.96000 391.000
46.00000 317.000
46.04000 330.000
46.08000 352.000
46.12000 343.000
46.16000 336.000
46.20000 342.000
46.24000 350.000
46.28000 351.000
46.32000 337.000
46.36000 359.000
46.40000 322.000
46.44000 343.000
46.48000 315.000
46.52000 348.000
46.56000 331.000
46.60000 371.000
46.64000 349.000
46.68000 355.000
46.72000 315.000
46.76000 331.000
46.80000 332.000
46.84000 314.000
46.88000 366.000
46.92000 316.000
46.96000 342.000
47.00000 375.000
47.04000 313.000
47.08000 325.000
47.12000 361.000
47.16000 327.000
47.20000 346.000
47.24000 325.000
47.28000 332.000
47.32000 342.000
47.36000 336.000
47.40000 300.000
47.44000 326.000
47.48000 325.000
47.52000 359.000
47.56000 349.000
47.60000 331.000
47.64000 341.000
47.68000 319.000
47.72000 321.000
47.76000 377.000
47.80000 331.000
47.84000 355.000
47.88000 348.000
47.92000 346.000
47.96000 358.000
48.00000 355.000
48.04000 356.000
48.08000 324.000
48.12000 338.000
48.16000 338.000
48.20000 321.000
48.24000 315.000
48.28000 368.000
48.32000 330.000
48.36000 323.000
48.40000 318.000
48.44000 293.000
48.48000 317.000
48.52000 313.000
48.56000 305.000
48.60000 310.000
48.64000 312.000
48.68000 325.000
48.72000 321.000
48.76000 330.000
48.80000 331.000
48.84000 343.000
48.88000 328.000
48.92000 328.000
48.96000 293.000
49.00000 350.000
49.04000 330.000
49.08000 344.000
49.12000 346.000
49.16000 299.000
49.20000 314.000
49.24000 357.000
49.28000 288.000
49.32000 332.000
49.36000 347.000
49.40000 306.000
49.44000 305.000
49.48000 284.000
49.52000 320.000
49.56000 309.000
49.60000 346.000
49.64000 299.000
49.68000 339.000
49.72000 288.000
49.76000 330.000
49.80000 325.000
49.84000 324.000
49.88000 314.000
49.92000 329.000
49.96000 340.000
50.00000 355.000
50.04000 347.000
50.08000 360.000
50.12000 361.000
50.16000 464.000
50.20000 504.000
50.24000 585.000
50.28000 662.000
50.32000 643.000
50.36000 582.000
50.40000 568.000
50.44000 529.000
50.48000 457.000
50.52000 440.000
50.56000 387.000
50.60000 321.000
50.64000 322.000
50.68000 285.000
50.72000 319.000
50.76000 337.000
50.80000 354.000
50.84000 289.000
50.88000 305.000
50.92000 318.000
50.96000 308.000
51.00000 311.000
51.04000 307.000
51.08000 315.000
51.12000 310.000
51.16000 298.000
51.20000 326.000
51.24000 330.000
51.28000 292.000
51.32000 332.000
51.36000 311.000
51.40000 318.000
51.44000 296.000
51.48000 318.000
51.52000 314.000
51.56000 358.000
51.60000 307.000
51.64000 309.000
51.68000 324.000
51.72000 323.000
51.76000 310.000
51.80000 335.000
51.84000 289.000
51.88000 362.000
51.92000 297.000
51.96000 337.000
52.00000 307.000
52.04000 303.000
52.08000 314.000
52.12000 322.000
52.16000 315.000
52.20000 294.000
52.24000 306.000
52.28000 326.000
52.32000 324.000
52.36000 366.000
52.40000 380.000
52.44000 407.000
52.48000 434.000
52.52000 420.000
52.56000 415.000
52.60000 379.000
52.64000 363.000
52.68000 358.000
52.72000 331.000
52.76000 342.000
52.80000 330.000
52.84000 306.000
52.88000 295.000
52.92000 286.000
52.96000 297.000
53.00000 317.000
53.04000 315.000
53.08000 267.000
53.12000 317.000
53.16000 290.000
53.20000 330.000
53.24000 286.000
53.28000 332.000
53.32000 318.000
53.36000 306.000
53.40000 324.000
53.44000 308.000
53.48000 327.000
53.52000 302.000
53.56000 327.000
53.60000 323.000
53.64000 301.000
53.68000 314.000
53.72000 320.000
53.76000 312.000
53.80000 319.000
53.84000 332.000
53.88000 313.000
53.92000 359.000
53.96000 329.000
54.00000 341.000
54.04000 320.000
54.08000 306.000
54.12000 307.000
54.16000 330.000
54.20000 327.000
54.24000 349.000
54.28000 356.000
54.32000 324.000
54.36000 338.000
54.40000 345.000
54.44000 352.000
54.48000 341.000
54.52000 379.000
54.56000 390.000
54.60000 411.000
54.64000 421.000
54.68000 417.000
54.72000 399.000
54.76000 391.000
54.80000 344.000
54.84000 380.000
54.88000 367.000
54.92000 350.000
54.96000 311.000
55.00000 343.000
55.04000 313.000
55.08000 374.000
55.12000 351.000
55.16000 329.000
55.20000 315.000
55.24000 329.000
55.28000 316.000
55.32000 300.000
55.36000 278.000
55.40000 302.000
55.44000 320.000
55.48000 337.000
55.52000 299.000
55.56000 323.000
55.60000 316.000
55.64000 252.000
55.68000 279.000
55.72000 283.000
55.76000 291.000
55.80000 276.000
55.84000 299.000
55.88000 317.000
55.92000 288.000
55.96000 324.000
56.00000 300.000
56.04000 284.000
56.08000 340.000
56.12000 304.000
56.16000 302.000
56.20000 299.000
56.24000 321.000
56.28000 327.000
56.32000 315.000
56.36000 310.000
56.40000 277.000
56.44000 324.000
56.48000 301.000
56.52000 301.000
56.56000 297.000
56.60000 326.000
56.64000 301.000
56.68000 273.000
56.72000 330.000
56.76000 307.000
56.80000 290.000
56.84000 298.000
56.88000 294.000
56.92000 324.000
56.96000 307.000
57.00000 297.000
57.04000 282.000
57.08000 274.000
57.12000 305.000
57.16000 281.000
57.20000 328.000
57.24000 333.000
57.28000 282.000
57.32000 312.000
57.36000 297.000
57.40000 313.000
57.44000 325.000
57.48000 284.000
57.52000 306.000
57.56000 305.000
57.60000 325.000
57.64000 281.000
57.68000 301.000
57.72000 318.000
57.76000 308.000
57.80000 302.000
57.84000 288.000
57.88000 323.000
57.92000 307.000
57.96000 277.000
58.00000 317.000
58.04000 269.000
58.08000 311.000
58.12000 314.000
58.16000 288.000
58.20000 283.000
58.24000 287.000
58.28000 313.000
58.32000 311.000
58.36000 305.000
58.40000 300.000
58.44000 285.000
58.48000 309.000
58.52000 337.000
58.56000 339.000
58.60000 381.000
58.64000 335.000
58.68000 337.000
58.72000 341.000
58.76000 358.000
58.80000 330.000
58.84000 350.000
58.88000 369.000
58.92000 359.000
58.96000 325.000
59.00000 313.000
59.04000 317.000
59.08000 308.000
59.12000 344.000
59.16000 323.000
59.20000 301.000
59.24000 305.000
59.28000 304.000
59.32000 293.000
59.36000 324.000
59.40000 307.000
59.44000 282.000
59.48000 278.000
59.52000 314.000
59.56000 299.000
59.60000 276.000
59.64000 300.000
59.68000 284.000
59.72000 321.000
59.76000 332.000
59.80000 303.000
59.84000 322.000
59.88000 321.000
59.92000 329.000