File: XRD/14.xy
5.00000 1031.000
5.04000 1060.000
5.08000 1037.000
5.12000 1004.000
5.16000 962.000
5.20000 977.000
5.24000 949.000
5.28000 1000.000
5.32000 903.000
5.36000 971.000
5.40000 954.000
5.44000 986.000
5.48000 943.000
5.52000 979.000
5.56000 1004.000
5.60000 962.000
5.64000 928.000
5.68000 922.000
5.72000 958.000
5.76000 985.000
5.80000 997.000
5.84000 976.000
5.88000 979.000
5.92000 955.000
5.96000 868.000
6.00000 852.000
6.04000 906.000
6.08000 853.000
6.12000 866.000
6.16000 864.000
6.20000 853.000
6.24000 897.000
6.28000 807.000
6.32000 831.000
6.36000 832.000
6.40000 840.000
6.44000 879.000
6.48000 847.000
6.52000 882.000
6.56000 820.000
6.60000 906.000
6.64000 803.000
6.68000 837.000
6.72000 760.000
6.76000 783.000
6.80000 765.000
6.84000 776.000
6.88000 791.000
6.92000 782.000
6.96000 775.000
7.00000 717.000
7.04000 742.000
7.08000 749.000
7.12000 771.000
7.16000 766.000
7.20000 770.000
7.24000 730.000
7.28000 735.000
7.32000 811.000
7.36000 748.000
7.40000 743.000
7.44000 755.000
7.48000 770.000
7.52000 815.000
7.56000 783.000
7.60000 815.000
7.64000 813.000
7.68000 901.000
7.72000 932.000
7.76000 982.000
7.80000 903.000
7.84000 918.000
7.88000 786.000
7.92000 753.000
7.96000 697.000
8.00000 732.000
8.04000 667.000
8.08000 720.000
8.12000 681.000
8.16000 640.000
8.20000 681.000
8.24000 612.000
8.28000 633.000
8.32000 674.000
8.36000 669.000
8.40000 699.000
8.44000 650.000
8.48000 727.000
8.52000 661.000
8.56000 755.000
8.60000 722.000
8.64000 749.000
8.68000 740.000
8.72000 709.000
8.76000 662.000
8.80000 653.000
8.84000 663.000
8.88000 629.000
8.92000 632.000
8.96000 655.000
9.00000 633.000
9.04000 652.000
9.08000 643.000
9.12000 663.000
9.16000 575.000
9.20000 626.000
9.24000 581.000
9.28000 613.000
9.32000 593.000
9.36000 618.000
9.40000 573.000
9.44000 629.000
9.48000 537.000
9.52000 578.000
9.56000 544.000
9.60000 564.000
9.64000 588.000
9.68000 580.000
9.72000 593.000
9.76000 628.000
9.80000 610.000
9.84000 616.000
9.88000 616.000
9.92000 605.000
9.96000 606.000
10.00000 640.000
10.04000 671.000
10.08000 718.000
10.12000 844.000
10.16000 824.000
10.20000 859.000
10.24000 834.000
10.28000 853.000
10.32000 812.000
10.36000 801.000
10.40000 822.000
10.44000 776.000
10.48000 837.000
10.52000 938.000
10.56000 1025.000
10.60000 1145.000
10.64000 1272.000
10.68000 1212.000
10.72000 1149.000
10.76000 986.000
10.80000 860.000
10.84000 788.000
10.88000 728.000
10.92000 623.000
10.96000 667.000
11.00000 565.000
11.04000 620.000
11.08000 602.000
11.12000 643.000
11.16000 646.000
11.20000 727.000
11.24000 852.000
11.28000 1093.000
11.32000 1589.000
11.36000 2445.000
11.40000 3086.000
11.44000 3441.000
11.48000 2679.000
11.52000 1826.000
11.56000 1264.000
11.60000 978.000
11.64000 806.000
11.68000 743.000
11.72000 731.000
11.76000 566.000
11.80000 595.000
11.84000 610.000
11.88000 539.000
11.92000 565.000
11.96000 535.000
12.00000 532.000
12.04000 557.000
12.08000 584.000
12.12000 575.000
12.16000 600.000
12.20000 630.000
12.24000 649.000
12.28000 640.000
12.32000 695.000
12.36000 719.000
12.40000 801.000
12.44000 937.000
12.48000 1124.000
12.52000 1209.000
12.56000 1537.000
12.60000 1895.000
12.64000 2405.000
12.68000 2728.000
12.72000 2835.000
12.76000 2478.000
12.80000 2081.000
12.84000 1557.000
12.88000 1233.000
12.92000 915.000
12.96000 764.000
13.00000 722.000
13.04000 649.000
13.08000 618.000
13.12000 607.000
13.16000 591.000
13.20000 566.000
13.24000 561.000
13.28000 640.000
13.32000 639.000
13.36000 629.000
13.40000 702.000
13.44000 832.000
13.48000 889.000
13.52000 993.000
13.56000 965.000
13.60000 1084.000
13.64000 1046.000
13.68000 1070.000
13.72000 1189.000
13.76000 1330.000
13.80000 1520.000
13.84000 1674.000
13.88000 1992.000
13.92000 2438.000
13.96000 2823.000
14.00000 3377.000
14.04000 4153.000
14.08000 5083.000
14.12000 6262.000
14.16000 7123.000
14.20000 6273.000
14.24000 4422.000
14.28000 2813.000
14.32000 1991.000
14.36000 1417.000
14.40000 1136.000
14.44000 952.000
14.48000 812.000
14.52000 715.000
14.56000 668.000
14.60000 591.000
14.64000 599.000
14.68000 527.000
14.72000 550.000
14.76000 533.000
14.80000 538.000
14.84000 485.000
14.88000 456.000
14.92000 486.000
14.96000 505.000
15.00000 471.000
15.04000 484.000
15.08000 473.000
15.12000 456.000
15.16000 476.000
15.20000 479.000
15.24000 437.000
15.28000 433.000
15.32000 447.000
15.36000 457.000
15.40000 485.000
15.44000 501.000
15.48000 494.000
15.52000 444.000
15.56000 495.000
15.60000 456.000
15.64000 464.000
15.68000 447.000
15.72000 431.000
15.76000 465.000
15.80000 482.000
15.84000 431.000
15.88000 430.000
15.92000 506.000
15.96000 459.000
16.00000 492.000
16.04000 472.000
16.08000 473.000
16.12000 515.000
16.16000 452.000
16.20000 476.000
16.24000 445.000
16.28000 457.000
16.32000 482.000
16.36000 496.000
16.40000 418.000
16.44000 445.000
16.48000 501.000
16.52000 455.000
16.56000 445.000
16.60000 492.000
16.64000 440.000
16.68000 462.000
16.72000 434.000
16.76000 470.000
16.80000 473.000
16.84000 434.000
16.88000 471.000
16.92000 487.000
16.96000 495.000
17.00000 452.000
17.04000 510.000
17.08000 475.000
17.12000 497.000
17.16000 463.000
17.20000 462.000
17.24000 490.000
17.28000 520.000
17.32000 526.000
17.36000 473.000
17.40000 439.000
17.44000 514.000
17.48000 482.000
17.52000 492.000
17.56000 541.000
17.60000 551.000
17.64000 497.000
17.68000 514.000
17.72000 563.000
17.76000 519.000
17.80000 532.000
17.84000 536.000
17.88000 519.000
17.92000 521.000
17.96000 503.000
18.00000 494.000
18.04000 488.000
18.08000 511.000
18.12000 538.000
18.16000 526.000
18.20000 543.000
18.24000 534.000
18.28000 519.000
18.32000 555.000
18.36000 542.000
18.40000 530.000
18.44000 531.000
18.48000 557.000
18.52000 506.000
18.56000 548.000
18.60000 572.000
18.64000 568.000
18.68000 565.000
18.72000 547.000
18.76000 548.000
18.80000 548.000
18.84000 549.000
18.88000 568.000
18.92000 542.000
18.96000 536.000
19.00000 563.000
19.04000 558.000
19.08000 552.000
19.12000 573.000
19.16000 562.000
19.20000 572.000
19.24000 575.000
19.28000 607.000
19.32000 562.000
19.36000 609.000
19.40000 572.000
19.44000 623.000
19.48000 583.000
19.52000 611.000
19.56000 641.000
19.60000 621.000
19.64000 634.000
19.68000 654.000
19.72000 701.000
19.76000 686.000
19.80000 708.000
19.84000 753.000
19.88000 777.000
19.92000 879.000
19.96000 1046.000
20.00000 1044.000
20.04000 1197.000
20.08000 1345.000
20.12000 1348.000
20.16000 1082.000
20.20000 985.000
20.24000 838.000
20.28000 713.000
20.32000 779.000
20.36000 737.000
20.40000 745.000
20.44000 706.000
20.48000 677.000
20.52000 696.000
20.56000 646.000
20.60000 719.000
20.64000 677.000
20.68000 694.000
20.72000 666.000
20.76000 699.000
20.80000 651.000
20.84000 676.000
20.88000 658.000
20.92000 644.000
20.96000 667.000
21.00000 703.000
21.04000 725.000
21.08000 693.000
21.12000 776.000
21.16000 798.000
21.20000 797.000
21.24000 795.000
21.28000 899.000
21.32000 938.000
21.36000 992.000
21.40000 930.000
21.44000 923.000
21.48000 907.000
21.52000 838.000
21.56000 777.000
21.60000 793.000
21.64000 746.000
21.68000 793.000
21.72000 768.000
21.76000 726.000
21.80000 758.000
21.84000 699.000
21.88000 792.000
21.92000 693.000
21.96000 772.000
22.00000 748.000
22.04000 737.000
22.08000 765.000
22.12000 684.000
22.16000 719.000
22.20000 780.000
22.24000 785.000
22.28000 784.000
22.32000 766.000
22.36000 785.000
22.40000 802.000
22.44000 815.000
22.48000 811.000
22.52000 802.000
22.56000 787.000
22.60000 818.000
22.64000 784.000
22.68000 804.000
22.72000 833.000
22.76000 778.000
22.80000 808.000
22.84000 791.000
22.88000 852.000
22.92000 841.000
22.96000 837.000
23.00000 830.000
23.04000 857.000
23.08000 847.000
23.12000 767.000
23.16000 832.000
23.20000 782.000
23.24000 810.000
23.28000 785.000
23.32000 808.000
23.36000 863.000
23.40000 927.000
23.44000 932.000
23.48000 913.000
23.52000 942.000
23.56000 883.000
23.60000 844.000
23.64000 848.000
23.68000 830.000
23.72000 776.000
23.76000 817.000
23.80000 798.000
23.84000 774.000
23.88000 771.000
23.92000 773.000
23.96000 827.000
24.00000 823.000
24.04000 817.000
24.08000 820.000
24.12000 879.000
24.16000 888.000
24.20000 947.000
24.24000 929.000
24.28000 946.000
24.32000 903.000
24.36000 1012.000
24.40000 968.000
24.44000 1072.000
24.48000 1154.000
24.52000 1224.000
24.56000 1397.000
24.60000 1562.000
24.64000 1911.000
24.68000 1851.000
24.72000 1864.000
24.76000 1544.000
24.80000 1324.000
24.84000 1259.000
24.88000 1253.000
24.92000 1306.000
24.96000 1368.000
25.00000 1580.000
25.04000 1628.000
25.08000 1595.000
25.12000 1463.000
25.16000 1360.000
25.20000 1272.000
25.24000 1111.000
25.28000 1128.000
25.32000 988.000
25.36000 972.000
25.40000 921.000
25.44000 986.000
25.48000 936.000
25.52000 986.000
25.56000 918.000
25.60000 931.000
25.64000 895.000
25.68000 963.000
25.72000 886.000
25.76000 872.000
25.80000 831.000
25.84000 904.000
25.88000 858.000
25.92000 893.000
25.96000 869.000
26.00000 899.000
26.04000 889.000
26.08000 836.000
26.12000 886.000
26.16000 870.000
26.20000 896.000
26.24000 840.000
26.28000 883.000
26.32000 838.000
26.36000 836.000
26.40000 846.000
26.44000 799.000
26.48000 884.000
26.52000 873.000
26.56000 888.000
26.60000 956.000
26.64000 959.000
26.68000 895.000
26.72000 955.000
26.76000 891.000
26.80000 938.000
26.84000 890.000
26.88000 846.000
26.92000 865.000
26.96000 875.000
27.00000 827.000
27.04000 873.000
27.08000 909.000
27.12000 922.000
27.16000 985.000
27.20000 1064.000
27.24000 1098.000
27.28000 1097.000
27.32000 1070.000
27.36000 1039.000
27.40000 1001.000
27.44000 921.000
27.48000 933.000
27.52000 768.000
27.56000 806.000
27.60000 842.000
27.64000 749.000
27.68000 773.000
27.72000 781.000
27.76000 752.000
27.80000 757.000
27.84000 819.000
27.88000 781.000
27.92000 788.000
27.96000 794.000
28.00000 828.000
28.04000 804.000
28.08000 832.000
28.12000 858.000
28.16000 852.000
28.20000 958.000
28.24000 1006.000
28.28000 1139.000
28.32000 1305.000
28.36000 1417.000
28.40000 1798.000
28.44000 2221.000
28.48000 2672.000
28.52000 3280.000
28.56000 3699.000
28.60000 3443.000
28.64000 2823.000
28.68000 2089.000
28.72000 1544.000
28.76000 1194.000
28.80000 1012.000
28.84000 995.000
28.88000 907.000
28.92000 887.000
28.96000 797.000
29.00000 779.000
29.04000 824.000
29.08000 853.000
29.12000 813.000
29.16000 797.000
29.20000 783.000
29.24000 846.000
29.28000 765.000
29.32000 780.000
29.36000 748.000
29.40000 735.000
29.44000 746.000
29.48000 709.000
29.52000 753.000
29.56000 714.000
29.60000 714.000
29.64000 687.000
29.68000 751.000
29.72000 737.000
29.76000 728.000
29.80000 728.000
29.84000 725.000
29.88000 695.000
29.92000 659.000
29.96000 706.000
30.00000 739.000
30.04000 695.000
30.08000 704.000
30.12000 678.000
30.16000 679.000
30.20000 681.000
30.24000 688.000
30.28000 673.000
30.32000 654.000
30.36000 698.000
30.40000 701.000
30.44000 688.000
30.48000 682.000
30.52000 632.000
30.56000 654.000
30.60000 729.000
30.64000 654.000
30.68000 709.000
30.72000 694.000
30.76000 713.000
30.80000 644.000
30.84000 682.000
30.88000 742.000
30.92000 696.000
30.96000 717.000
31.00000 672.000
31.04000 712.000
31.08000 683.000
31.12000 683.000
31.16000 737.000
31.20000 666.000
31.24000 722.000
31.28000 662.000
31.32000 725.000
31.36000 686.000
31.40000 701.000
31.44000 758.000
31.48000 670.000
31.52000 664.000
31.56000 719.000
31.60000 627.000
31.64000 741.000
31.68000 746.000
31.72000 776.000
31.76000 811.000
31.80000 879.000
31.84000 1044.000
31.88000 1277.000
31.92000 1496.000
31.96000 1859.000
32.00000 2329.000
32.04000 2410.000
32.08000 2076.000
32.12000 1810.000
32.16000 1378.000
32.20000 1097.000
32.24000 854.000
32.28000 761.000
32.32000 736.000
32.36000 754.000
32.40000 658.000
32.44000 704.000
32.48000 719.000
32.52000 641.000
32.56000 655.000
32.60000 645.000
32.64000 680.000
32.68000 624.000
32.72000 625.000
32.76000 608.000
32.80000 608.000
32.84000 631.000
32.88000 606.000
32.92000 578.000
32.96000 608.000
33.00000 570.000
33.04000 573.000
33.08000 577.000
33.12000 616.000
33.16000 608.000
33.20000 583.000
33.24000 572.000
33.28000 546.000
33.32000 561.000
33.36000 578.000
33.40000 553.000
33.44000 566.000
33.48000 531.000
33.52000 519.000
33.56000 567.000
33.60000 530.000
33.64000 543.000
33.68000 509.000
33.72000 532.000
33.76000 588.000
33.80000 560.000
33.84000 506.000
33.88000 558.000
33.92000 509.000
33.96000 529.000
34.00000 528.000
34.04000 536.000
34.08000 531.000
34.12000 551.000
34.16000 524.000
34.20000 522.000
34.24000 562.000
34.28000 527.000
34.32000 556.000
34.36000 591.000
34.40000 618.000
34.44000 579.000
34.48000 675.000
34.52000 729.000
34.56000 804.000
34.60000 969.000
34.64000 1174.000
34.68000 1306.000
34.72000 1293.000
34.76000 1294.000
34.80000 1142.000
34.84000 961.000
34.88000 803.000
34.92000 768.000
34.96000 719.000
35.00000 674.000
35.04000 660.000
35.08000 733.000
35.12000 813.000
35.16000 912.000
35.20000 867.000
35.24000 851.000
35.28000 727.000
35.32000 648.000
35.36000 584.000
35.40000 557.000
35.44000 558.000
35.48000 528.000
35.52000 477.000
35.56000 468.000
35.60000 476.000
35.64000 456.000
35.68000 491.000
35.72000 493.000
35.76000 459.000
35.80000 487.000
35.84000 476.000
35.88000 455.000
35.92000 484.000
35.96000 494.000
36.00000 446.000
36.04000 457.000
36.08000 446.000
36.12000 442.000
36.16000 431.000
36.20000 456.000
36.24000 461.000
36.28000 468.000
36.32000 449.000
36.36000 418.000
36.40000 427.000
36.44000 467.000
36.48000 438.000
36.52000 403.000
36.56000 463.000
36.60000 421.000
36.64000 419.000
36.68000 409.000
36.72000 449.000
36.76000 478.000
36.80000 427.000
36.84000 404.000
36.88000 462.000
36.92000 438.000
36.96000 439.000
37.00000 405.000
37.04000 457.000
37.08000 446.000
37.12000 422.000
37.16000 462.000
37.20000 396.000
37.24000 420.000
37.28000 413.000
37.32000 423.000
37.36000 434.000
37.40000 406.000
37.44000 448.000
37.48000 443.000
37.52000 437.000
37.56000 392.000
37.60000 391.000
37.64000 425.000
37.68000 381.000
37.72000 390.000
37.76000 435.000
37.80000 437.000
37.84000 394.000
37.88000 399.000
37.92000 360.000
37.96000 385.000
38.00000 371.000
38.04000 389.000
38.08000 377.000
38.12000 375.000
38.16000 382.000
38.20000 406.000
38.24000 373.000
38.28000 347.000
38.32000 372.000
38.36000 411.000
38.40000 424.000
38.44000 419.000
38.48000 413.000
38.52000 427.000
38.56000 500.000
38.60000 552.000
38.64000 573.000
38.68000 657.000
38.72000 700.000
38.76000 715.000
38.80000 700.000
38.84000 655.000
38.88000 678.000
38.92000 611.000
38.96000 555.000
39.00000 507.000
39.04000 495.000
39.08000 443.000
39.12000 498.000
39.16000 412.000
39.20000 425.000
39.24000 385.000
39.28000 417.000
39.32000 426.000
39.36000 430.000
39.40000 394.000
39.44000 439.000
39.48000 429.000
39.52000 427.000
39.56000 452.000
39.60000 388.000
39.64000 410.000
39.68000 391.000
39.72000 376.000
39.76000 387.000
39.80000 398.000
39.84000 415.000
39.88000 380.000
39.92000 405.000
39.96000 395.000
40.00000 409.000
40.04000 417.000
40.08000 375.000
40.12000 422.000
40.16000 395.000
40.20000 382.000
40.24000 424.000
40.28000 397.000
40.32000 419.000
40.36000 417.000
40.40000 430.000
40.44000 416.000
40.48000 449.000
40.52000 432.000
40.56000 475.000
40.60000 459.000
40.64000 525.000
40.68000 586.000
40.72000 742.000
40.76000 892.000
40.80000 1105.000
40.84000 1222.000
40.88000 1268.000
40.92000 1178.000
40.96000 1024.000
41.00000 810.000
41.04000 681.000
41.08000 584.000
41.12000 540.000
41.16000 519.000
41.20000 490.000
41.24000 461.000
41.28000 441.000
41.32000 463.000
41.36000 430.000
41.40000 454.000
41.44000 409.000
41.48000 422.000
41.52000 415.000
41.56000 411.000
41.60000 417.000
41.64000 413.000
41.68000 407.000
41.72000 430.000
41.76000 428.000
41.80000 389.000
41.84000 406.000
41.88000 367.000
41.92000 401.000
41.96000 366.000
42.00000 405.000
42.04000 391.000
42.08000 395.000
42.12000 422.000
42.16000 385.000
42.20000 428.000
42.24000 390.000
42.28000 393.000
42.32000 385.000
42.36000 396.000
42.40000 409.000
42.44000 369.000
42.48000 402.000
42.52000 417.000
42.56000 422.000
42.60000 379.000
42.64000 351.000
42.68000 403.000
42.72000 361.000
42.76000 407.000
42.80000 398.000
42.84000 409.000
42.88000 394.000
42.92000 389.000
42.96000 430.000
43.00000 453.000
43.04000 429.000
43.08000 424.000
43.12000 424.000
43.16000 438.000
43.20000 468.000
43.24000 560.000
43.28000 624.000
43.32000 766.000
43.36000 934.000
43.40000 1096.000
43.44000 1183.000
43.48000 1147.000
43.52000 1127.000
43.56000 951.000
43.60000 772.000
43.64000 668.000
43.68000 554.000
43.72000 472.000
43.76000 431.000
43.80000 449.000
43.84000 417.000
43.88000 402.000
43.92000 362.000
43.96000 431.000
44.00000 402.000
44.04000 403.000
44.08000 427.000
44.12000 395.000
44.16000 405.000
44.20000 402.000
44.24000 391.000
44.28000 402.000
44.32000 390.000
44.36000 387.000
44.40000 392.000
44.44000 379.000
44.48000 352.000
44.52000 371.000
44.56000 384.000
44.60000 370.000
44.64000 361.000
44.68000 375.000
44.72000 415.000
44.76000 394.000
44.80000 387.000
44.84000 391.000
44.88000 376.000
44.92000 423.000
44.96000 399.000
45.00000 381.000
45.04000 397.000
45.08000 350.000
45.12000 378.000
45.16000 398.000
45.20000 382.000
45.24000 374.000
45.28000 377.000
45.32000 367.000
45.36000 392.000
45.40000 382.000
45.44000 349.000
45.48000 352.000
45.52000 364.000
45.56000 361.000
45.60000 404.000
45.64000 354.000
45.68000 377.000
45.72000 358.000
45.76000 380.000
45.80000 400.000
45.84000 375.000
45.88000 420.000
45.92000 433.000
45.96000 400.000
46.00000 395.000
46.04000 376.000
46.08000 421.000
46.12000 369.000
46.16000 386.000
46.20000 367.000
46.24000 389.000
46.28000 338.000
46.32000 363.000
46.36000 327.000
46.40000 376.000
46.44000 359.000
46.48000 402.000
46.52000 362.000
46.56000 455.000
46.60000 478.000
46.64000 532.000
46.68000 583.000
46.72000 761.000
46.76000 822.000
46.80000 892.000
46.84000 945.000
46.88000 950.000
46.92000 958.000
46.96000 915.000
47.00000 827.000
47.04000 731.000
47.08000 606.000
47.12000 500.000
47.16000 459.000
47.20000 455.000
47.24000 412.000
47.28000 392.000
47.32000 370.000
47.36000 381.000
47.40000 375.000
47.44000 350.000
47.48000 339.000
47.52000 350.000
47.56000 344.000
47.60000 362.000
47.64000 338.000
47.68000 342.000
47.72000 309.000
47.76000 351.000
47.80000 314.000
47.84000 301.000
47.88000 402.000
47.92000 341.000
47.96000 361.000
48.00000 381.000
48.04000 362.000
48.08000 373.000
48.12000 334.000
48.16000 342.000
48.20000 377.000
48.24000 322.000
48.28000 335.000
48.32000 344.000
48.36000 341.000
48.40000 346.000
48.44000 341.000
48.48000 351.000
48.52000 332.000
48.56000 308.000
48.60000 337.000
48.64000 356.000
48.68000 334.000
48.72000 337.000
48.76000 327.000
48.80000 348.000
48.84000 343.000
48.88000 390.000
48.92000 355.000
48.96000 346.000
49.00000 338.000
49.04000 357.000
49.08000 303.000
49.12000 344.000
49.16000 330.000
49.20000 323.000
49.24000 346.000
49.28000 330.000
49.32000 330.000
49.36000 348.000
49.40000 337.000
49.44000 324.000
49.48000 338.000
49.52000 325.000
49.56000 350.000
49.60000 352.000
49.64000 323.000
49.68000 345.000
49.72000 336.000
49.76000 359.000
49.80000 323.000
49.84000 327.000
49.88000 338.000
49.92000 327.000
49.96000 322.000
50.00000 350.000
50.04000 360.000
50.08000 320.000
50.12000 324.000
50.16000 320.000
50.20000 359.000
50.24000 351.000
50.28000 344.000
50.32000 351.000
50.36000 382.000
50.40000 392.000
50.44000 418.000
50.48000 529.000
50.52000 565.000
50.56000 677.000
50.60000 726.000
50.64000 675.000
50.68000 653.000
50.72000 655.000
50.76000 561.000
50.80000 519.000
50.84000 444.000
50.88000 395.000
50.92000 375.000
50.96000 357.000
51.00000 333.000
51.04000 333.000
51.08000 344.000
51.12000 328.000
51.16000 326.000
51.20000 318.000
51.24000 335.000
51.28000 309.000
51.32000 338.000
51.36000 334.000
51.40000 321.000
51.44000 317.000
51.48000 308.000
51.52000 299.000
51.56000 326.000
51.60000 322.000
51.64000 313.000
51.68000 327.000
51.72000 371.000
51.76000 326.000
51.80000 308.000
51.84000 314.000
51.88000 326.000
51.92000 314.000
51.96000 337.000
52.00000 332.000
52.04000 351.000
52.08000 360.000
52.12000 358.000
52.16000 325.000
52.20000 393.000
52.24000 395.000
52.28000 414.000
52.32000 435.000
52.36000 460.000
52.40000 493.000
52.44000 542.000
52.48000 559.000
52.52000 565.000
52.56000 478.000
52.60000 554.000
52.64000 541.000
52.68000 491.000
52.72000 529.000
52.76000 518.000
52.80000 474.000
52.84000 460.000
52.88000 427.000
52.92000 434.000
52.96000 404.000
53.00000 437.000
53.04000 378.000
53.08000 331.000
53.12000 348.000
53.16000 338.000
53.20000 320.000
53.24000 348.000
53.28000 306.000
53.32000 355.000
53.36000 317.000
53.40000 295.000
53.44000 330.000
53.48000 317.000
53.52000 298.000
53.56000 317.000
53.60000 319.000
53.64000 356.000
53.68000 283.000
53.72000 318.000
53.76000 315.000
53.80000 308.000
53.84000 305.000
53.88000 304.000
53.92000 346.000
53.96000 305.000
54.00000 291.000
54.04000 294.000
54.08000 333.000
54.12000 298.000
54.16000 308.000
54.20000 286.000
54.24000 335.000
54.28000 296.000
54.32000 294.000
54.36000 344.000
54.40000 286.000
54.44000 284.000
54.48000 324.000
54.52000 300.000
54.56000 317.000
54.60000 329.000
54.64000 300.000
54.68000 313.000
54.72000 297.000
54.76000 310.000
54.80000 346.000
54.84000 310.000
54.88000 316.000
54.92000 316.000
54.96000 366.000
55.00000 327.000
55.04000 359.000
55.08000 376.000
55.12000 392.000
55.16000 345.000
55.20000 363.000
55.24000 331.000
55.28000 386.000
55.32000 338.000
55.36000 348.000
55.40000 336.000
55.44000 324.000
55.48000 319.000
55.52000 322.000
55.56000 340.000
55.60000 295.000
55.64000 318.000
55.68000 295.000
55.72000 347.000
55.76000 295.000
55.80000 287.000
55.84000 316.000
55.88000 308.000
55.92000 345.000
55.96000 283.000
56.00000 298.000
56.04000 341.000
56.08000 290.000
56.12000 308.000
56.16000 279.000
56.20000 281.000
56.24000 335.000
56.28000 300.000
56.32000 288.000
56.36000 301.000
56.40000 288.000
56.44000 289.000
56.48000 302.000
56.52000 298.000
56.56000 323.000
56.60000 327.000
56.64000 324.000
56.68000 295.000
56.72000 281.000
56.76000 305.000
56.80000 322.000
56.84000 260.000
56.88000 306.000
56.92000 339.000
56.96000 308.000
57.00000 299.000
57.04000 315.000
57.08000 296.000
57.12000 315.000
57.16000 297.000
57.20000 296.000
57.24000 271.000
57.28000 324.000
57.32000 325.000
57.36000 292.000
57.40000 327.000
57.44000 269.000
57.48000 322.000
57.52000 311.000
57.56000 280.000
57.60000 311.000
57.64000 324.000
57.68000 306.000
57.72000 316.000
57.76000 314.000
57.80000 289.000
57.84000 303.000
57.88000 286.000
57.92000 336.000
57.96000 308.000
58.00000 310.000
58.04000 308.000
58.08000 300.000
58.12000 339.000
58.16000 299.000
58.20000 308.000
58.24000 314.000
58.28000 324.000
58.32000 314.000
58.36000 308.000
58.40000 326.000
58.44000 288.000
58.48000 307.000
58.52000 293.000
58.56000 264.000
58.60000 353.000
58.64000 340.000
58.68000 295.000
58.72000 278.000
58.76000 302.000
58.80000 326.000
58.84000 285.000
58.88000 322.000
58.92000 301.000
58.96000 300.000
59.00000 323.000
59.04000 325.000
59.08000 377.000
59.12000 335.000
59.16000 347.000
59.20000 363.000
59.24000 350.000
59.28000 355.000
59.32000 332.000
59.36000 349.000
59.40000 311.000
59.44000 325.000
59.48000 301.000
59.52000 300.000
59.56000 313.000
59.60000 326.000
59.64000 297.000
59.68000 305.000
59.72000 278.000
59.76000 312.000
59.80000 307.000
59.84000 288.000
59.88000 326.000
59.92000 320.000