File: XRD/15.xy
5.00000 966.000
5.04000 1015.000
5.08000 1086.000
5.12000 1053.000
5.16000 977.000
5.20000 1029.000
5.24000 956.000
5.28000 975.000
5.32000 976.000
5.36000 961.000
5.40000 938.000
5.44000 949.000
5.48000 946.000
5.52000 983.000
5.56000 973.000
5.60000 958.000
5.64000 918.000
5.68000 925.000
5.72000 928.000
5.76000 968.000
5.80000 947.000
5.84000 991.000
5.88000 977.000
5.92000 908.000
5.96000 899.000
6.00000 906.000
6.04000 905.000
6.08000 802.000
6.12000 854.000
6.16000 856.000
6.20000 835.000
6.24000 879.000
6.28000 838.000
6.32000 832.000
6.36000 889.000
6.40000 809.000
6.44000 796.000
6.48000 790.000
6.52000 814.000
6.56000 788.000
6.60000 861.000
6.64000 793.000
6.68000 777.000
6.72000 801.000
6.76000 777.000
6.80000 755.000
6.84000 785.000
6.88000 753.000
6.92000 747.000
6.96000 794.000
7.00000 727.000
7.04000 755.000
7.08000 774.000
7.12000 781.000
7.16000 808.000
7.20000 846.000
7.24000 801.000
7.28000 865.000
7.32000 911.000
7.36000 1059.000
7.40000 1173.000
7.44000 1259.000
7.48000 1172.000
7.52000 921.000
7.56000 860.000
7.60000 756.000
7.64000 759.000
7.68000 754.000
7.72000 664.000
7.76000 697.000
7.80000 678.000
7.84000 689.000
7.88000 680.000
7.92000 629.000
7.96000 690.000
8.00000 652.000
8.04000 646.000
8.08000 648.000
8.12000 656.000
8.16000 624.000
8.20000 654.000
8.24000 660.000
8.28000 666.000
8.32000 637.000
8.36000 608.000
8.40000 613.000
8.44000 636.000
8.48000 654.000
8.52000 617.000
8.56000 624.000
8.60000 675.000
8.64000 614.000
8.68000 646.000
8.72000 628.000
8.76000 624.000
8.80000 634.000
8.84000 595.000
8.88000 651.000
8.92000 615.000
8.96000 672.000
9.00000 650.000
9.04000 678.000
9.08000 652.000
9.12000 599.000
9.16000 566.000
9.20000 577.000
9.24000 552.000
9.28000 573.000
9.32000 599.000
9.36000 589.000
9.40000 625.000
9.44000 537.000
9.48000 558.000
9.52000 604.000
9.56000 563.000
9.60000 569.000
9.64000 588.000
9.68000 582.000
9.72000 595.000
9.76000 573.000
9.80000 585.000
9.84000 607.000
9.88000 605.000
9.92000 618.000
9.96000 575.000
10.00000 645.000
10.04000 702.000
10.08000 696.000
10.12000 736.000
10.16000 812.000
10.20000 802.000
10.24000 819.000
10.28000 758.000
10.32000 698.000
10.36000 651.000
10.40000 634.000
10.44000 610.000
10.48000 569.000
10.52000 569.000
10.56000 565.000
10.60000 684.000
10.64000 666.000
10.68000 718.000
10.72000 671.000
10.76000 615.000
10.80000 608.000
10.84000 628.000
10.88000 607.000
10.92000 572.000
10.96000 546.000
11.00000 560.000
11.04000 518.000
11.08000 538.000
11.12000 562.000
11.16000 534.000
11.20000 575.000
11.24000 587.000
11.28000 567.000
11.32000 567.000
11.36000 622.000
11.40000 576.000
11.44000 621.000
11.48000 542.000
11.52000 552.000
11.56000 564.000
11.60000 568.000
11.64000 620.000
11.68000 630.000
11.72000 582.000
11.76000 619.000
11.80000 594.000
11.84000 564.000
11.88000 594.000
11.92000 615.000
11.96000 621.000
12.00000 615.000
12.04000 678.000
12.08000 717.000
12.12000 700.000
12.16000 745.000
12.20000 775.000
12.24000 838.000
12.28000 842.000
12.32000 985.000
12.36000 1060.000
12.40000 1336.000
12.44000 1685.000
12.48000 2199.000
12.52000 3163.000
12.56000 4468.000
12.60000 6293.000
12.64000 8568.000
12.68000 10627.000
12.72000 12080.000
12.76000 11561.000
12.80000 9403.000
12.84000 6887.000
12.88000 4811.000
12.92000 3128.000
12.96000 2181.000
13.00000 1577.000
13.04000 1361.000
13.08000 1128.000
13.12000 968.000
13.16000 898.000
13.20000 825.000
13.24000 841.000
13.28000 772.000
13.32000 751.000
13.36000 821.000
13.40000 834.000
13.44000 922.000
13.48000 952.000
13.52000 1090.000
13.56000 1012.000
13.60000 1021.000
13.64000 812.000
13.68000 849.000
13.72000 835.000
13.76000 804.000
13.80000 797.000
13.84000 966.000
13.88000 999.000
13.92000 1175.000
13.96000 1286.000
14.00000 1412.000
14.04000 1542.000
14.08000 1828.000
14.12000 2130.000
14.16000 2561.000
14.20000 3084.000
14.24000 3453.000
14.28000 3145.000
14.32000 2330.000
14.36000 1477.000
14.40000 1083.000
14.44000 814.000
14.48000 696.000
14.52000 590.000
14.56000 554.000
14.60000 543.000
14.64000 537.000
14.68000 548.000
14.72000 517.000
14.76000 452.000
14.80000 488.000
14.84000 520.000
14.88000 466.000
14.92000 483.000
14.96000 439.000
15.00000 454.000
15.04000 457.000
15.08000 442.000
15.12000 424.000
15.16000 442.000
15.20000 487.000
15.24000 422.000
15.28000 479.000
15.32000 411.000
15.36000 481.000
15.40000 494.000
15.44000 475.000
15.48000 463.000
15.52000 462.000
15.56000 461.000
15.60000 494.000
15.64000 453.000
15.68000 453.000
15.72000 485.000
15.76000 446.000
15.80000 438.000
15.84000 487.000
15.88000 433.000
15.92000 466.000
15.96000 494.000
16.00000 436.000
16.04000 487.000
16.08000 480.000
16.12000 478.000
16.16000 485.000
16.20000 478.000
16.24000 494.000
16.28000 470.000
16.32000 486.000
16.36000 480.000
16.40000 462.000
16.44000 474.000
16.48000 493.000
16.52000 432.000
16.56000 461.000
16.60000 478.000
16.64000 460.000
16.68000 469.000
16.72000 479.000
16.76000 495.000
16.80000 456.000
16.84000 541.000
16.88000 512.000
16.92000 463.000
16.96000 481.000
17.00000 475.000
17.04000 483.000
17.08000 502.000
17.12000 512.000
17.16000 501.000
17.20000 451.000
17.24000 473.000
17.28000 507.000
17.32000 477.000
17.36000 478.000
17.40000 505.000
17.44000 503.000
17.48000 491.000
17.52000 506.000
17.56000 539.000
17.60000 515.000
17.64000 557.000
17.68000 564.000
17.72000 479.000
17.76000 490.000
17.80000 516.000
17.84000 538.000
17.88000 525.000
17.92000 499.000
17.96000 557.000
18.00000 568.000
18.04000 508.000
18.08000 569.000
18.12000 537.000
18.16000 528.000
18.20000 558.000
18.24000 524.000
18.28000 480.000
18.32000 511.000
18.36000 538.000
18.40000 549.000
18.44000 540.000
18.48000 538.000
18.52000 560.000
18.56000 541.000
18.60000 572.000
18.64000 547.000
18.68000 554.000
18.72000 568.000
18.76000 595.000
18.80000 579.000
18.84000 532.000
18.88000 555.000
18.92000 568.000
18.96000 551.000
19.00000 589.000
19.04000 546.000
19.08000 518.000
19.12000 556.000
19.16000 645.000
19.20000 538.000
19.24000 622.000
19.28000 575.000
19.32000 619.000
19.36000 589.000
19.40000 614.000
19.44000 634.000
19.48000 587.000
19.52000 620.000
19.56000 657.000
19.60000 653.000
19.64000 633.000
19.68000 674.000
19.72000 672.000
19.76000 684.000
19.80000 710.000
19.84000 774.000
19.88000 805.000
19.92000 911.000
19.96000 938.000
20.00000 990.000
20.04000 1178.000
20.08000 1352.000
20.12000 1589.000
20.16000 1951.000
20.20000 2326.000
20.24000 2291.000
20.28000 1940.000
20.32000 1412.000
20.36000 1072.000
20.40000 908.000
20.44000 790.000
20.48000 742.000
20.52000 697.000
20.56000 681.000
20.60000 725.000
20.64000 688.000
20.68000 684.000
20.72000 696.000
20.76000 638.000
20.80000 698.000
20.84000 669.000
20.88000 678.000
20.92000 637.000
20.96000 688.000
21.00000 717.000
21.04000 757.000
21.08000 698.000
21.12000 684.000
21.16000 703.000
21.20000 727.000
21.24000 674.000
21.28000 743.000
21.32000 739.000
21.36000 768.000
21.40000 787.000
21.44000 866.000
21.48000 724.000
21.52000 755.000
21.56000 776.000
21.60000 748.000
21.64000 811.000
21.68000 753.000
21.72000 747.000
21.76000 745.000
21.80000 682.000
21.84000 759.000
21.88000 711.000
21.92000 688.000
21.96000 782.000
22.00000 711.000
22.04000 752.000
22.08000 793.000
22.12000 789.000
22.16000 721.000
22.20000 763.000
22.24000 772.000
22.28000 816.000
22.32000 798.000
22.36000 808.000
22.40000 800.000
22.44000 803.000
22.48000 852.000
22.52000 766.000
22.56000 751.000
22.60000 784.000
22.64000 771.000
22.68000 757.000
22.72000 801.000
22.76000 782.000
22.80000 731.000
22.84000 784.000
22.88000 827.000
22.92000 817.000
22.96000 813.000
23.00000 789.000
23.04000 789.000
23.08000 813.000
23.12000 765.000
23.16000 821.000
23.20000 837.000
23.24000 861.000
23.28000 894.000
23.32000 936.000
23.36000 1045.000
23.40000 1082.000
23.44000 1108.000
23.48000 1174.000
23.52000 1255.000
23.56000 1099.000
23.60000 1043.000
23.64000 934.000
23.68000 889.000
23.72000 820.000
23.76000 895.000
23.80000 768.000
23.84000 757.000
23.88000 819.000
23.92000 798.000
23.96000 836.000
24.00000 747.000
24.04000 806.000
24.08000 699.000
24.12000 798.000
24.16000 783.000
24.20000 796.000
24.24000 797.000
24.28000 821.000
24.32000 864.000
24.36000 872.000
24.40000 848.000
24.44000 808.000
24.48000 868.000
24.52000 882.000
24.56000 881.000
24.60000 926.000
24.64000 959.000
24.68000 1138.000
24.72000 1169.000
24.76000 1364.000
24.80000 1432.000
24.84000 1473.000
24.88000 1375.000
24.92000 1207.000
24.96000 1142.000
25.00000 1032.000
25.04000 972.000
25.08000 940.000
25.12000 972.000
25.16000 856.000
25.20000 898.000
25.24000 987.000
25.28000 873.000
25.32000 886.000
25.36000 883.000
25.40000 961.000
25.44000 978.000
25.48000 1042.000
25.52000 1038.000
25.56000 1147.000
25.60000 1185.000
25.64000 1125.000
25.68000 1047.000
25.72000 956.000
25.76000 918.000
25.80000 885.000
25.84000 864.000
25.88000 819.000
25.92000 886.000
25.96000 800.000
26.00000 808.000
26.04000 766.000
26.08000 840.000
26.12000 739.000
26.16000 801.000
26.20000 767.000
26.24000 799.000
26.28000 805.000
26.32000 777.000
26.36000 856.000
26.40000 762.000
26.44000 782.000
26.48000 821.000
26.52000 752.000
26.56000 786.000
26.60000 755.000
26.64000 811.000
26.68000 789.000
26.72000 797.000
26.76000 778.000
26.80000 787.000
26.84000 752.000
26.88000 837.000
26.92000 828.000
26.96000 867.000
27.00000 870.000
27.04000 850.000
27.08000 918.000
27.12000 1018.000
27.16000 1034.000
27.20000 1032.000
27.24000 1188.000
27.28000 1142.000
27.32000 1097.000
27.36000 1068.000
27.40000 959.000
27.44000 895.000
27.48000 873.000
27.52000 830.000
27.56000 835.000
27.60000 802.000
27.64000 743.000
27.68000 756.000
27.72000 752.000
27.76000 759.000
27.80000 794.000
27.84000 760.000
27.88000 782.000
27.92000 803.000
27.96000 772.000
28.00000 757.000
28.04000 761.000
28.08000 731.000
28.12000 799.000
28.16000 801.000
28.20000 769.000
28.24000 754.000
28.28000 802.000
28.32000 877.000
28.36000 884.000
28.40000 831.000
28.44000 923.000
28.48000 997.000
28.52000 1079.000
28.56000 1215.000
28.60000 1296.000
28.64000 1511.000
28.68000 1814.000
28.72000 1956.000
28.76000 1886.000
28.80000 1794.000
28.84000 1445.000
28.88000 1223.000
28.92000 1023.000
28.96000 886.000
29.00000 833.000
29.04000 789.000
29.08000 752.000
29.12000 780.000
29.16000 737.000
29.20000 725.000
29.24000 661.000
29.28000 741.000
29.32000 664.000
29.36000 652.000
29.40000 738.000
29.44000 669.000
29.48000 684.000
29.52000 735.000
29.56000 738.000
29.60000 764.000
29.64000 665.000
29.68000 697.000
29.72000 695.000
29.76000 737.000
29.80000 689.000
29.84000 689.000
29.88000 672.000
29.92000 732.000
29.96000 642.000
30.00000 692.000
30.04000 722.000
30.08000 676.000
30.12000 688.000
30.16000 698.000
30.20000 687.000
30.24000 650.000
30.28000 654.000
30.32000 677.000
30.36000 674.000
30.40000 679.000
30.44000 689.000
30.48000 662.000
30.52000 676.000
30.56000 697.000
30.60000 705.000
30.64000 709.000
30.68000 683.000
30.72000 737.000
30.76000 681.000
30.80000 675.000
30.84000 702.000
30.88000 747.000
30.92000 711.000
30.96000 658.000
31.00000 683.000
31.04000 674.000
31.08000 640.000
31.12000 689.000
31.16000 704.000
31.20000 692.000
31.24000 732.000
31.28000 772.000
31.32000 734.000
31.36000 727.000
31.40000 708.000
31.44000 698.000
31.48000 672.000
31.52000 731.000
31.56000 680.000
31.60000 689.000
31.64000 657.000
31.68000 676.000
31.72000 673.000
31.76000 673.000
31.80000 698.000
31.84000 759.000
31.88000 740.000
31.92000 793.000
31.96000 879.000
32.00000 988.000
32.04000 1176.000
32.08000 1337.000
32.12000 1744.000
32.16000 2147.000
32.20000 2415.000
32.24000 2586.000
32.28000 2352.000
32.32000 2017.000
32.36000 1553.000
32.40000 1271.000
32.44000 989.000
32.48000 868.000
32.52000 730.000
32.56000 719.000
32.60000 700.000
32.64000 671.000
32.68000 656.000
32.72000 660.000
32.76000 636.000
32.80000 591.000
32.84000 661.000
32.88000 625.000
32.92000 576.000
32.96000 606.000
33.00000 593.000
33.04000 586.000
33.08000 579.000
33.12000 593.000
33.16000 606.000
33.20000 616.000
33.24000 601.000
33.28000 583.000
33.32000 567.000
33.36000 567.000
33.40000 566.000
33.44000 570.000
33.48000 559.000
33.52000 520.000
33.56000 580.000
33.60000 578.000
33.64000 576.000
33.68000 570.000
33.72000 552.000
33.76000 558.000
33.80000 542.000
33.84000 590.000
33.88000 523.000
33.92000 572.000
33.96000 507.000
34.00000 559.000
34.04000 546.000
34.08000 555.000
34.12000 547.000
34.16000 536.000
34.20000 567.000
34.24000 527.000
34.28000 544.000
34.32000 553.000
34.36000 515.000
34.40000 532.000
34.44000 524.000
34.48000 520.000
34.52000 510.000
34.56000 480.000
34.60000 499.000
34.64000 524.000
34.68000 462.000
34.72000 477.000
34.76000 501.000
34.80000 527.000
34.84000 466.000
34.88000 475.000
34.92000 492.000
34.96000 523.000
35.00000 472.000
35.04000 500.000
35.08000 483.000
35.12000 530.000
35.16000 540.000
35.20000 563.000
35.24000 647.000
35.28000 708.000
35.32000 793.000
35.36000 855.000
35.40000 887.000
35.44000 885.000
35.48000 876.000
35.52000 764.000
35.56000 633.000
35.60000 581.000
35.64000 576.000
35.68000 511.000
35.72000 501.000
35.76000 473.000
35.80000 468.000
35.84000 452.000
35.88000 490.000
35.92000 481.000
35.96000 495.000
36.00000 464.000
36.04000 474.000
36.08000 424.000
36.12000 454.000
36.16000 440.000
36.20000 476.000
36.24000 446.000
36.28000 436.000
36.32000 436.000
36.36000 443.000
36.40000 433.000
36.44000 437.000
36.48000 417.000
36.52000 425.000
36.56000 464.000
36.60000 435.000
36.64000 446.000
36.68000 420.000
36.72000 451.000
36.76000 443.000
36.80000 456.000
36.84000 427.000
36.88000 419.000
36.92000 479.000
36.96000 408.000
37.00000 467.000
37.04000 448.000
37.08000 436.000
37.12000 400.000
37.16000 438.000
37.20000 432.000
37.24000 462.000
37.28000 473.000
37.32000 476.000
37.36000 501.000
37.40000 528.000
37.44000 480.000
37.48000 492.000
37.52000 467.000
37.56000 444.000
37.60000 450.000
37.64000 476.000
37.68000 428.000
37.72000 415.000
37.76000 440.000
37.80000 396.000
37.84000 413.000
37.88000 407.000
37.92000 420.000
37.96000 444.000
38.00000 452.000
38.04000 474.000
38.08000 422.000
38.12000 411.000
38.16000 480.000
38.20000 481.000
38.24000 455.000
38.28000 540.000
38.32000 536.000
38.36000 557.000
38.40000 563.000
38.44000 641.000
38.48000 752.000
38.52000 874.000
38.56000 1064.000
38.60000 1284.000
38.64000 1519.000
38.68000 1794.000
38.72000 2239.000
38.76000 2302.000
38.80000 2354.000
38.84000 2376.000
38.88000 2202.000
38.92000 1831.000
38.96000 1525.000
39.00000 1264.000
39.04000 1016.000
39.08000 862.000
39.12000 731.000
39.16000 629.000
39.20000 590.000
39.24000 547.000
39.28000 535.000
39.32000 532.000
39.36000 501.000
39.40000 518.000
39.44000 503.000
39.48000 485.000
39.52000 489.000
39.56000 439.000
39.60000 442.000
39.64000 493.000
39.68000 465.000
39.72000 444.000
39.76000 398.000
39.80000 428.000
39.84000 419.000
39.88000 398.000
39.92000 386.000
39.96000 458.000
40.00000 385.000
40.04000 423.000
40.08000 405.000
40.12000 398.000
40.16000 444.000
40.20000 390.000
40.24000 448.000
40.28000 446.000
40.32000 417.000
40.36000 434.000
40.40000 423.000
40.44000 427.000
40.48000 402.000
40.52000 397.000
40.56000 411.000
40.60000 427.000
40.64000 420.000
40.68000 477.000
40.72000 447.000
40.76000 451.000
40.80000 479.000
40.84000 602.000
40.88000 666.000
40.92000 795.000
40.96000 955.000
41.00000 1233.000
41.04000 1505.000
41.08000 1866.000
41.12000 1982.000
41.16000 1974.000
41.20000 1689.000
41.24000 1386.000
41.28000 1144.000
41.32000 867.000
41.36000 687.000
41.40000 581.000
41.44000 495.000
41.48000 482.000
41.52000 475.000
41.56000 475.000
41.60000 432.000
41.64000 465.000
41.68000 411.000
41.72000 438.000
41.76000 431.000
41.80000 476.000
41.84000 426.000
41.88000 411.000
41.92000 391.000
41.96000 391.000
42.00000 426.000
42.04000 393.000
42.08000 406.000
42.12000 375.000
42.16000 427.000
42.20000 438.000
42.24000 430.000
42.28000 406.000
42.32000 443.000
42.36000 411.000
42.40000 401.000
42.44000 402.000
42.48000 390.000
42.52000 389.000
42.56000 406.000
42.60000 377.000
42.64000 403.000
42.68000 347.000
42.72000 393.000
42.76000 391.000
42.80000 387.000
42.84000 360.000
42.88000 399.000
42.92000 393.000
42.96000 367.000
43.00000 399.000
43.04000 409.000
43.08000 401.000
43.12000 421.000
43.16000 418.000
43.20000 406.000
43.24000 414.000
43.28000 371.000
43.32000 442.000
43.36000 447.000
43.40000 457.000
43.44000 476.000
43.48000 530.000
43.52000 593.000
43.56000 699.000
43.60000 771.000
43.64000 930.000
43.68000 1171.000
43.72000 1231.000
43.76000 1221.000
43.80000 1183.000
43.84000 1016.000
43.88000 903.000
43.92000 685.000
43.96000 599.000
44.00000 500.000
44.04000 444.000
44.08000 415.000
44.12000 453.000
44.16000 381.000
44.20000 449.000
44.24000 425.000
44.28000 352.000
44.32000 387.000
44.36000 408.000
44.40000 381.000
44.44000 414.000
44.48000 370.000
44.52000 391.000
44.56000 388.000
44.60000 398.000
44.64000 399.000
44.68000 399.000
44.72000 392.000
44.76000 386.000
44.80000 394.000
44.84000 434.000
44.88000 423.000
44.92000 388.000
44.96000 365.000
45.00000 382.000
45.04000 388.000
45.08000 387.000
45.12000 381.000
45.16000 396.000
45.20000 374.000
45.24000 379.000
45.28000 360.000
45.32000 392.000
45.36000 371.000
45.40000 381.000
45.44000 386.000
45.48000 354.000
45.52000 407.000
45.56000 381.000
45.60000 415.000
45.64000 381.000
45.68000 353.000
45.72000 404.000
45.76000 372.000
45.80000 401.000
45.84000 391.000
45.88000 402.000
45.92000 360.000
45.96000 378.000
46.00000 365.000
46.04000 405.000
46.08000 370.000
46.12000 351.000
46.16000 380.000
46.20000 383.000
46.24000 395.000
46.28000 390.000
46.32000 385.000
46.36000 376.000
46.40000 356.000
46.44000 411.000
46.48000 356.000
46.52000 344.000
46.56000 382.000
46.60000 379.000
46.64000 349.000
46.68000 396.000
46.72000 332.000
46.76000 334.000
46.80000 329.000
46.84000 362.000
46.88000 351.000
46.92000 347.000
46.96000 361.000
47.00000 344.000
47.04000 324.000
47.08000 355.000
47.12000 318.000
47.16000 333.000
47.20000 320.000
47.24000 337.000
47.28000 336.000
47.32000 348.000
47.36000 352.000
47.40000 324.000
47.44000 313.000
47.48000 373.000
47.52000 348.000
47.56000 355.000
47.60000 305.000
47.64000 348.000
47.68000 337.000
47.72000 304.000
47.76000 329.000
47.80000 320.000
47.84000 386.000
47.88000 327.000
47.92000 356.000
47.96000 352.000
48.00000 324.000
48.04000 363.000
48.08000 354.000
48.12000 329.000
48.16000 329.000
48.20000 326.000
48.24000 335.000
48.28000 323.000
48.32000 334.000
48.36000 326.000
48.40000 327.000
48.44000 315.000
48.48000 348.000
48.52000 325.000
48.56000 333.000
48.60000 323.000
48.64000 365.000
48.68000 304.000
48.72000 369.000
48.76000 289.000
48.80000 348.000
48.84000 351.000
48.88000 352.000
48.92000 337.000
48.96000 327.000
49.00000 276.000
49.04000 359.000
49.08000 330.000
49.12000 334.000
49.16000 344.000
49.20000 289.000
49.24000 330.000
49.28000 317.000
49.32000 322.000
49.36000 321.000
49.40000 301.000
49.44000 320.000
49.48000 312.000
49.52000 303.000
49.56000 326.000
49.60000 329.000
49.64000 343.000
49.68000 324.000
49.72000 332.000
49.76000 297.000
49.80000 339.000
49.84000 331.000
49.88000 317.000
49.92000 368.000
49.96000 308.000
50.00000 331.000
50.04000 305.000
50.08000 318.000
50.12000 272.000
50.16000 357.000
50.20000 348.000
50.24000 326.000
50.28000 339.000
50.32000 330.000
50.36000 319.000
50.40000 312.000
50.44000 328.000
50.48000 334.000
50.52000 338.000
50.56000 342.000
50.60000 318.000
50.64000 309.000
50.68000 351.000
50.72000 337.000
50.76000 388.000
50.80000 398.000
50.84000 458.000
50.88000 528.000
50.92000 527.000
50.96000 535.000
51.00000 581.000
51.04000 542.000
51.08000 467.000
51.12000 480.000
51.16000 405.000
51.20000 379.000
51.24000 402.000
51.28000 341.000
51.32000 331.000
51.36000 373.000
51.40000 373.000
51.44000 343.000
51.48000 358.000
51.52000 332.000
51.56000 351.000
51.60000 339.000
51.64000 350.000
51.68000 323.000
51.72000 381.000
51.76000 359.000
51.80000 340.000
51.84000 342.000
51.88000 383.000
51.92000 409.000
51.96000 400.000
52.00000 381.000
52.04000 445.000
52.08000 443.000
52.12000 487.000
52.16000 581.000
52.20000 644.000
52.24000 745.000
52.28000 899.000
52.32000 979.000
52.36000 1147.000
52.40000 1306.000
52.44000 1501.000
52.48000 1611.000
52.52000 1628.000
52.56000 1810.000
52.60000 1736.000
52.64000 1630.000
52.68000 1555.000
52.72000 1263.000
52.76000 1166.000
52.80000 1012.000
52.84000 838.000
52.88000 662.000
52.92000 581.000
52.96000 515.000
53.00000 501.000
53.04000 480.000
53.08000 492.000
53.12000 521.000
53.16000 510.000
53.20000 509.000
53.24000 504.000
53.28000 445.000
53.32000 457.000
53.36000 434.000
53.40000 463.000
53.44000 409.000
53.48000 348.000
53.52000 359.000
53.56000 358.000
53.60000 386.000
53.64000 308.000
53.68000 348.000
53.72000 350.000
53.76000 365.000
53.80000 333.000
53.84000 320.000
53.88000 328.000
53.92000 309.000
53.96000 322.000
54.00000 304.000
54.04000 312.000
54.08000 314.000
54.12000 336.000
54.16000 331.000
54.20000 331.000
54.24000 322.000
54.28000 296.000
54.32000 305.000
54.36000 293.000
54.40000 315.000
54.44000 322.000
54.48000 319.000
54.52000 323.000
54.56000 316.000
54.60000 324.000
54.64000 293.000
54.68000 308.000
54.72000 332.000
54.76000 299.000
54.80000 333.000
54.84000 333.000
54.88000 297.000
54.92000 323.000
54.96000 316.000
55.00000 339.000
55.04000 321.000
55.08000 347.000
55.12000 336.000
55.16000 329.000
55.20000 382.000
55.24000 321.000
55.28000 362.000
55.32000 359.000
55.36000 415.000
55.40000 393.000
55.44000 448.000
55.48000 354.000
55.52000 359.000
55.56000 319.000
55.60000 346.000
55.64000 323.000
55.68000 376.000
55.72000 305.000
55.76000 316.000
55.80000 328.000
55.84000 313.000
55.88000 278.000
55.92000 313.000
55.96000 298.000
56.00000 314.000
56.04000 301.000
56.08000 303.000
56.12000 290.000
56.16000 300.000
56.20000 324.000
56.24000 338.000
56.28000 309.000
56.32000 313.000
56.36000 313.000
56.40000 321.000
56.44000 304.000
56.48000 308.000
56.52000 288.000
56.56000 319.000
56.60000 324.000
56.64000 291.000
56.68000 305.000
56.72000 311.000
56.76000 315.000
56.80000 317.000
56.84000 316.000
56.88000 306.000
56.92000 339.000
56.96000 301.000
57.00000 320.000
57.04000 311.000
57.08000 320.000
57.12000 324.000
57.16000 301.000
57.20000 304.000
57.24000 303.000
57.28000 330.000
57.32000 323.000
57.36000 309.000
57.40000 317.000
57.44000 298.000
57.48000 317.000
57.52000 329.000
57.56000 345.000
57.60000 287.000
57.64000 343.000
57.68000 329.000
57.72000 297.000
57.76000 308.000
57.80000 325.000
57.84000 303.000
57.88000 295.000
57.92000 318.000
57.96000 280.000
58.00000 300.000
58.04000 311.000
58.08000 291.000
58.12000 299.000
58.16000 288.000
58.20000 331.000
58.24000 266.000
58.28000 289.000
58.32000 285.000
58.36000 308.000
58.40000 295.000
58.44000 306.000
58.48000 331.000
58.52000 263.000
58.56000 304.000
58.60000 311.000
58.64000 292.000
58.68000 305.000
58.72000 271.000
58.76000 309.000
58.80000 330.000
58.84000 298.000
58.88000 325.000
58.92000 287.000
58.96000 320.000
59.00000 311.000
59.04000 272.000
59.08000 304.000
59.12000 321.000
59.16000 291.000
59.20000 295.000
59.24000 327.000
59.28000 307.000
59.32000 319.000
59.36000 303.000
59.40000 305.000
59.44000 299.000
59.48000 333.000
59.52000 316.000
59.56000 327.000
59.60000 305.000
59.64000 287.000
59.68000 330.000
59.72000 280.000
59.76000 316.000
59.80000 308.000
59.84000 290.000
59.88000 307.000
59.92000 288.000