File: XRD/17.xy
5.00000 1148.000
5.04000 1161.000
5.08000 1129.000
5.12000 1093.000
5.16000 1131.000
5.20000 1118.000
5.24000 1115.000
5.28000 1068.000
5.32000 1073.000
5.36000 1032.000
5.40000 1007.000
5.44000 1020.000
5.48000 1020.000
5.52000 1037.000
5.56000 1026.000
5.60000 1021.000
5.64000 1012.000
5.68000 1011.000
5.72000 997.000
5.76000 972.000
5.80000 977.000
5.84000 903.000
5.88000 966.000
5.92000 939.000
5.96000 945.000
6.00000 917.000
6.04000 901.000
6.08000 926.000
6.12000 963.000
6.16000 891.000
6.20000 912.000
6.24000 864.000
6.28000 879.000
6.32000 905.000
6.36000 905.000
6.40000 892.000
6.44000 904.000
6.48000 837.000
6.52000 908.000
6.56000 886.000
6.60000 875.000
6.64000 870.000
6.68000 867.000
6.72000 810.000
6.76000 812.000
6.80000 775.000
6.84000 854.000
6.88000 835.000
6.92000 814.000
6.96000 813.000
7.00000 783.000
7.04000 784.000
7.08000 825.000
7.12000 783.000
7.16000 754.000
7.20000 758.000
7.24000 831.000
7.28000 777.000
7.32000 800.000
7.36000 754.000
7.40000 766.000
7.44000 785.000
7.48000 740.000
7.52000 762.000
7.56000 785.000
7.60000 752.000
7.64000 727.000
7.68000 746.000
7.72000 734.000
7.76000 733.000
7.80000 752.000
7.84000 732.000
7.88000 761.000
7.92000 720.000
7.96000 696.000
8.00000 690.000
8.04000 650.000
8.08000 718.000
8.12000 694.000
8.16000 723.000
8.20000 731.000
8.24000 678.000
8.28000 744.000
8.32000 729.000
8.36000 699.000
8.40000 685.000
8.44000 656.000
8.48000 668.000
8.52000 679.000
8.56000 673.000
8.60000 644.000
8.64000 620.000
8.68000 622.000
8.72000 689.000
8.76000 609.000
8.80000 625.000
8.84000 636.000
8.88000 636.000
8.92000 620.000
8.96000 618.000
9.00000 594.000
9.04000 612.000
9.08000 612.000
9.12000 628.000
9.16000 652.000
9.20000 656.000
9.24000 600.000
9.28000 643.000
9.32000 606.000
9.36000 604.000
9.40000 626.000
9.44000 621.000
9.48000 602.000
9.52000 621.000
9.56000 594.000
9.60000 616.000
9.64000 563.000
9.68000 622.000
9.72000 569.000
9.76000 585.000
9.80000 595.000
9.84000 609.000
9.88000 640.000
9.92000 602.000
9.96000 614.000
10.00000 626.000
10.04000 578.000
10.08000 551.000
10.12000 598.000
10.16000 590.000
10.20000 601.000
10.24000 593.000
10.28000 596.000
10.32000 589.000
10.36000 549.000
10.40000 536.000
10.44000 598.000
10.48000 583.000
10.52000 572.000
10.56000 566.000
10.60000 563.000
10.64000 570.000
10.68000 596.000
10.72000 581.000
10.76000 545.000
10.80000 566.000
10.84000 598.000
10.88000 559.000
10.92000 602.000
10.96000 563.000
11.00000 574.000
11.04000 602.000
11.08000 589.000
11.12000 598.000
11.16000 582.000
11.20000 544.000
11.24000 567.000
11.28000 562.000
11.32000 564.000
11.36000 561.000
11.40000 558.000
11.44000 586.000
11.48000 563.000
11.52000 562.000
11.56000 582.000
11.60000 616.000
11.64000 576.000
11.68000 562.000
11.72000 638.000
11.76000 606.000
11.80000 608.000
11.84000 623.000
11.88000 618.000
11.92000 663.000
11.96000 611.000
12.00000 613.000
12.04000 630.000
12.08000 663.000
12.12000 652.000
12.16000 606.000
12.20000 611.000
12.24000 589.000
12.28000 579.000
12.32000 686.000
12.36000 671.000
12.40000 677.000
12.44000 692.000
12.48000 710.000
12.52000 700.000
12.56000 697.000
12.60000 749.000
12.64000 703.000
12.68000 747.000
12.72000 735.000
12.76000 740.000
12.80000 803.000
12.84000 806.000
12.88000 877.000
12.92000 835.000
12.96000 894.000
13.00000 971.000
13.04000 993.000
13.08000 1083.000
13.12000 1112.000
13.16000 1129.000
13.20000 1156.000
13.24000 1263.000
13.28000 1391.000
13.32000 1538.000
13.36000 1641.000
13.40000 1560.000
13.44000 1320.000
13.48000 1214.000
13.52000 1159.000
13.56000 1117.000
13.60000 1153.000
13.64000 1133.000
13.68000 1220.000
13.72000 1138.000
13.76000 1202.000
13.80000 1228.000
13.84000 1286.000
13.88000 1409.000
13.92000 1454.000
13.96000 1486.000
14.00000 1817.000
14.04000 2063.000
14.08000 2353.000
14.12000 2735.000
14.16000 3042.000
14.20000 3148.000
14.24000 3191.000
14.28000 3272.000
14.32000 3674.000
14.36000 4488.000
14.40000 5785.000
14.44000 8129.000
14.48000 11388.000
14.52000 17370.000
14.56000 27249.000
14.60000 43479.000
14.64000 74665.000
14.68000 137968.000
14.72000 240877.000
14.76000 369714.900
14.80000 422538.000
14.84000 337843.800
14.88000 212645.600
14.92000 116612.100
14.96000 63973.000
15.00000 37206.000
15.04000 22412.000
15.08000 14901.000
15.12000 10576.000
15.16000 8471.000
15.20000 7154.000
15.24000 6237.000
15.28000 5438.000
15.32000 4965.000
15.36000 4398.000
15.40000 3847.000
15.44000 3379.000
15.48000 2917.000
15.52000 2634.000
15.56000 2314.000
15.60000 1983.000
15.64000 1820.000
15.68000 1670.000
15.72000 1413.000
15.76000 1385.000
15.80000 1323.000
15.84000 1224.000
15.88000 1177.000
15.92000 1163.000
15.96000 1075.000
16.00000 1053.000
16.04000 988.000
16.08000 967.000
16.12000 924.000
16.16000 886.000
16.20000 844.000
16.24000 839.000
16.28000 829.000
16.32000 767.000
16.36000 778.000
16.40000 775.000
16.44000 720.000
16.48000 691.000
16.52000 694.000
16.56000 728.000
16.60000 634.000
16.64000 635.000
16.68000 671.000
16.72000 666.000
16.76000 665.000
16.80000 646.000
16.84000 657.000
16.88000 603.000
16.92000 634.000
16.96000 650.000
17.00000 637.000
17.04000 616.000
17.08000 582.000
17.12000 653.000
17.16000 633.000
17.20000 607.000
17.24000 630.000
17.28000 639.000
17.32000 590.000
17.36000 626.000
17.40000 616.000
17.44000 605.000
17.48000 605.000
17.52000 573.000
17.56000 639.000
17.60000 624.000
17.64000 629.000
17.68000 600.000
17.72000 604.000
17.76000 602.000
17.80000 645.000
17.84000 638.000
17.88000 578.000
17.92000 608.000
17.96000 626.000
18.00000 615.000
18.04000 642.000
18.08000 640.000
18.12000 612.000
18.16000 616.000
18.20000 625.000
18.24000 592.000
18.28000 592.000
18.32000 656.000
18.36000 608.000
18.40000 620.000
18.44000 652.000
18.48000 620.000
18.52000 607.000
18.56000 618.000
18.60000 602.000
18.64000 618.000
18.68000 686.000
18.72000 683.000
18.76000 598.000
18.80000 674.000
18.84000 643.000
18.88000 647.000
18.92000 633.000
18.96000 639.000
19.00000 656.000
19.04000 670.000
19.08000 657.000
19.12000 668.000
19.16000 662.000
19.20000 663.000
19.24000 638.000
19.28000 653.000
19.32000 626.000
19.36000 642.000
19.40000 713.000
19.44000 690.000
19.48000 714.000
19.52000 670.000
19.56000 652.000
19.60000 725.000
19.64000 665.000
19.68000 666.000
19.72000 709.000
19.76000 697.000
19.80000 657.000
19.84000 717.000
19.88000 679.000
19.92000 709.000
19.96000 725.000
20.00000 754.000
20.04000 738.000
20.08000 732.000
20.12000 731.000
20.16000 754.000
20.20000 780.000
20.24000 794.000
20.28000 679.000
20.32000 745.000
20.36000 753.000
20.40000 752.000
20.44000 756.000
20.48000 796.000
20.52000 772.000
20.56000 774.000
20.60000 879.000
20.64000 835.000
20.68000 884.000
20.72000 1011.000
20.76000 1015.000
20.80000 1162.000
20.84000 1298.000
20.88000 1560.000
20.92000 1671.000
20.96000 1788.000
21.00000 1629.000
21.04000 1501.000
21.08000 1214.000
21.12000 1025.000
21.16000 890.000
21.20000 868.000
21.24000 797.000
21.28000 775.000
21.32000 782.000
21.36000 815.000
21.40000 814.000
21.44000 801.000
21.48000 764.000
21.52000 845.000
21.56000 861.000
21.60000 799.000
21.64000 795.000
21.68000 772.000
21.72000 834.000
21.76000 776.000
21.80000 857.000
21.84000 766.000
21.88000 815.000
21.92000 831.000
21.96000 763.000
22.00000 824.000
22.04000 805.000
22.08000 819.000
22.12000 788.000
22.16000 807.000
22.20000 839.000
22.24000 825.000
22.28000 837.000
22.32000 831.000
22.36000 868.000
22.40000 905.000
22.44000 868.000
22.48000 871.000
22.52000 822.000
22.56000 874.000
22.60000 863.000
22.64000 823.000
22.68000 880.000
22.72000 814.000
22.76000 913.000
22.80000 814.000
22.84000 861.000
22.88000 882.000
22.92000 829.000
22.96000 843.000
23.00000 827.000
23.04000 857.000
23.08000 863.000
23.12000 876.000
23.16000 855.000
23.20000 831.000
23.24000 834.000
23.28000 839.000
23.32000 807.000
23.36000 792.000
23.40000 832.000
23.44000 829.000
23.48000 844.000
23.52000 844.000
23.56000 844.000
23.60000 902.000
23.64000 873.000
23.68000 817.000
23.72000 907.000
23.76000 864.000
23.80000 885.000
23.84000 881.000
23.88000 876.000
23.92000 879.000
23.96000 840.000
24.00000 839.000
24.04000 858.000
24.08000 861.000
24.12000 877.000
24.16000 853.000
24.20000 883.000
24.24000 920.000
24.28000 855.000
24.32000 840.000
24.36000 896.000
24.40000 772.000
24.44000 875.000
24.48000 871.000
24.52000 831.000
24.56000 872.000
24.60000 826.000
24.64000 856.000
24.68000 874.000
24.72000 911.000
24.76000 857.000
24.80000 840.000
24.84000 871.000
24.88000 888.000
24.92000 819.000
24.96000 834.000
25.00000 846.000
25.04000 899.000
25.08000 862.000
25.12000 903.000
25.16000 872.000
25.20000 857.000
25.24000 773.000
25.28000 867.000
25.32000 857.000
25.36000 878.000
25.40000 900.000
25.44000 823.000
25.48000 849.000
25.52000 853.000
25.56000 886.000
25.60000 878.000
25.64000 932.000
25.68000 945.000
25.72000 1002.000
25.76000 952.000
25.80000 924.000
25.84000 881.000
25.88000 913.000
25.92000 865.000
25.96000 871.000
26.00000 860.000
26.04000 869.000
26.08000 832.000
26.12000 851.000
26.16000 896.000
26.20000 873.000
26.24000 856.000
26.28000 810.000
26.32000 829.000
26.36000 857.000
26.40000 892.000
26.44000 965.000
26.48000 910.000
26.52000 947.000
26.56000 995.000
26.60000 1008.000
26.64000 966.000
26.68000 1013.000
26.72000 1074.000
26.76000 1125.000
26.80000 1128.000
26.84000 1192.000
26.88000 1239.000
26.92000 1187.000
26.96000 1145.000
27.00000 985.000
27.04000 972.000
27.08000 942.000
27.12000 944.000
27.16000 887.000
27.20000 922.000
27.24000 867.000
27.28000 882.000
27.32000 903.000
27.36000 910.000
27.40000 958.000
27.44000 858.000
27.48000 908.000
27.52000 924.000
27.56000 941.000
27.60000 916.000
27.64000 947.000
27.68000 997.000
27.72000 947.000
27.76000 938.000
27.80000 939.000
27.84000 1012.000
27.88000 929.000
27.92000 945.000
27.96000 938.000
28.00000 970.000
28.04000 954.000
28.08000 982.000
28.12000 968.000
28.16000 1056.000
28.20000 1037.000
28.24000 1048.000
28.28000 1084.000
28.32000 1159.000
28.36000 1214.000
28.40000 1203.000
28.44000 1387.000
28.48000 1432.000
28.52000 1591.000
28.56000 1642.000
28.60000 1582.000
28.64000 1510.000
28.68000 1369.000
28.72000 1408.000
28.76000 1447.000
28.80000 1476.000
28.84000 1427.000
28.88000 1523.000
28.92000 1468.000
28.96000 1586.000
29.00000 1682.000
29.04000 1795.000
29.08000 1805.000
29.12000 1968.000
29.16000 2126.000
29.20000 2410.000
29.24000 2648.000
29.28000 3139.000
29.32000 3742.000
29.36000 4407.000
29.40000 5622.000
29.44000 7436.000
29.48000 10270.000
29.52000 14688.000
29.56000 22086.000
29.60000 33621.000
29.64000 51164.000
29.68000 78661.000
29.72000 116873.000
29.76000 163788.900
29.80000 187727.300
29.84000 197246.600
29.88000 177041.300
29.92000 136164.100
29.96000 93420.330
30.00000 58800.000
30.04000 34496.000
30.08000 20589.000
30.12000 12875.000
30.16000 8634.000
30.20000 6296.000
30.24000 5097.000
30.28000 4504.000
30.32000 3966.000
30.36000 3741.000
30.40000 3487.000
30.44000 3119.000
30.48000 3048.000
30.52000 2884.000
30.56000 2796.000
30.60000 2657.000
30.64000 2446.000
30.68000 2432.000
30.72000 2364.000
30.76000 2256.000
30.80000 2232.000
30.84000 2170.000
30.88000 1962.000
30.92000 1930.000
30.96000 1805.000
31.00000 1745.000
31.04000 1699.000
31.08000 1694.000
31.12000 1521.000
31.16000 1499.000
31.20000 1447.000
31.24000 1486.000
31.28000 1389.000
31.32000 1378.000
31.36000 1329.000
31.40000 1231.000
31.44000 1185.000
31.48000 1089.000
31.52000 1093.000
31.56000 977.000
31.60000 988.000
31.64000 951.000
31.68000 930.000
31.72000 895.000
31.76000 862.000
31.80000 885.000
31.84000 842.000
31.88000 810.000
31.92000 766.000
31.96000 837.000
32.00000 827.000
32.04000 802.000
32.08000 870.000
32.12000 834.000
32.16000 824.000
32.20000 757.000
32.24000 810.000
32.28000 767.000
32.32000 789.000
32.36000 791.000
32.40000 756.000
32.44000 762.000
32.48000 755.000
32.52000 750.000
32.56000 715.000
32.60000 776.000
32.64000 756.000
32.68000 774.000
32.72000 712.000
32.76000 719.000
32.80000 714.000
32.84000 727.000
32.88000 686.000
32.92000 701.000
32.96000 666.000
33.00000 699.000
33.04000 799.000
33.08000 789.000
33.12000 799.000
33.16000 860.000
33.20000 921.000
33.24000 1026.000
33.28000 1145.000
33.32000 1232.000
33.36000 1444.000
33.40000 1495.000
33.44000 1558.000
33.48000 1458.000
33.52000 1453.000
33.56000 1240.000
33.60000 1015.000
33.64000 884.000
33.68000 775.000
33.72000 708.000
33.76000 684.000
33.80000 637.000
33.84000 638.000
33.88000 644.000
33.92000 613.000
33.96000 597.000
34.00000 592.000
34.04000 624.000
34.08000 601.000
34.12000 612.000
34.16000 594.000
34.20000 607.000
34.24000 561.000
34.28000 601.000
34.32000 597.000
34.36000 579.000
34.40000 536.000
34.44000 578.000
34.48000 547.000
34.52000 577.000
34.56000 583.000
34.60000 581.000
34.64000 547.000
34.68000 521.000
34.72000 518.000
34.76000 507.000
34.80000 573.000
34.84000 542.000
34.88000 555.000
34.92000 519.000
34.96000 550.000
35.00000 550.000
35.04000 510.000
35.08000 600.000
35.12000 492.000
35.16000 532.000
35.20000 529.000
35.24000 516.000
35.28000 493.000
35.32000 549.000
35.36000 501.000
35.40000 500.000
35.44000 492.000
35.48000 506.000
35.52000 480.000
35.56000 494.000
35.60000 495.000
35.64000 486.000
35.68000 482.000
35.72000 510.000
35.76000 509.000
35.80000 533.000
35.84000 472.000
35.88000 499.000
35.92000 495.000
35.96000 478.000
36.00000 482.000
36.04000 462.000
36.08000 498.000
36.12000 494.000
36.16000 525.000
36.20000 551.000
36.24000 510.000
36.28000 557.000
36.32000 531.000
36.36000 570.000
36.40000 516.000
36.44000 567.000
36.48000 477.000
36.52000 558.000
36.56000 556.000
36.60000 586.000
36.64000 611.000
36.68000 646.000
36.72000 620.000
36.76000 600.000
36.80000 608.000
36.84000 620.000
36.88000 556.000
36.92000 523.000
36.96000 479.000
37.00000 456.000
37.04000 441.000
37.08000 426.000
37.12000 458.000
37.16000 439.000
37.20000 396.000
37.24000 413.000
37.28000 412.000
37.32000 411.000
37.36000 431.000
37.40000 443.000
37.44000 462.000
37.48000 409.000
37.52000 414.000
37.56000 429.000
37.60000 453.000
37.64000 404.000
37.68000 430.000
37.72000 408.000
37.76000 422.000
37.80000 427.000
37.84000 398.000
37.88000 407.000
37.92000 412.000
37.96000 421.000
38.00000 428.000
38.04000 423.000
38.08000 403.000
38.12000 404.000
38.16000 414.000
38.20000 382.000
38.24000 396.000
38.28000 374.000
38.32000 360.000
38.36000 377.000
38.40000 412.000
38.44000 380.000
38.48000 402.000
38.52000 390.000
38.56000 398.000
38.60000 402.000
38.64000 394.000
38.68000 381.000
38.72000 351.000
38.76000 401.000
38.80000 360.000
38.84000 369.000
38.88000 394.000
38.92000 361.000
38.96000 420.000
39.00000 384.000
39.04000 390.000
39.08000 406.000
39.12000 359.000
39.16000 388.000
39.20000 376.000
39.24000 358.000
39.28000 399.000
39.32000 391.000
39.36000 370.000
39.40000 450.000
39.44000 383.000
39.48000 359.000
39.52000 382.000
39.56000 382.000
39.60000 365.000
39.64000 347.000
39.68000 374.000
39.72000 349.000
39.76000 354.000
39.80000 363.000
39.84000 395.000
39.88000 396.000
39.92000 389.000
39.96000 412.000
40.00000 390.000
40.04000 337.000
40.08000 374.000
40.12000 357.000
40.16000 349.000
40.20000 395.000
40.24000 408.000
40.28000 390.000
40.32000 407.000
40.36000 366.000
40.40000 377.000
40.44000 371.000
40.48000 410.000
40.52000 346.000
40.56000 402.000
40.60000 394.000
40.64000 346.000
40.68000 360.000
40.72000 364.000
40.76000 410.000
40.80000 438.000
40.84000 378.000
40.88000 386.000
40.92000 403.000
40.96000 379.000
41.00000 391.000
41.04000 367.000
41.08000 365.000
41.12000 388.000
41.16000 386.000
41.20000 377.000
41.24000 373.000
41.28000 405.000
41.32000 356.000
41.36000 357.000
41.40000 392.000
41.44000 356.000
41.48000 370.000
41.52000 362.000
41.56000 406.000
41.60000 425.000
41.64000 377.000
41.68000 383.000
41.72000 412.000
41.76000 392.000
41.80000 390.000
41.84000 407.000
41.88000 440.000
41.92000 418.000
41.96000 376.000
42.00000 400.000
42.04000 396.000
42.08000 397.000
42.12000 433.000
42.16000 415.000
42.20000 417.000
42.24000 450.000
42.28000 437.000
42.32000 421.000
42.36000 467.000
42.40000 508.000
42.44000 476.000
42.48000 549.000
42.52000 646.000
42.56000 682.000
42.60000 753.000
42.64000 834.000
42.68000 845.000
42.72000 837.000
42.76000 864.000
42.80000 755.000
42.84000 688.000
42.88000 635.000
42.92000 593.000
42.96000 503.000
43.00000 483.000
43.04000 454.000
43.08000 456.000
43.12000 438.000
43.16000 391.000
43.20000 417.000
43.24000 414.000
43.28000 440.000
43.32000 433.000
43.36000 446.000
43.40000 397.000
43.44000 435.000
43.48000 417.000
43.52000 412.000
43.56000 418.000
43.60000 395.000
43.64000 449.000
43.68000 388.000
43.72000 489.000
43.76000 419.000
43.80000 422.000
43.84000 419.000
43.88000 393.000
43.92000 424.000
43.96000 419.000
44.00000 420.000
44.04000 420.000
44.08000 437.000
44.12000 426.000
44.16000 388.000
44.20000 414.000
44.24000 414.000
44.28000 452.000
44.32000 421.000
44.36000 430.000
44.40000 414.000
44.44000 443.000
44.48000 409.000
44.52000 485.000
44.56000 435.000
44.60000 491.000
44.64000 460.000
44.68000 439.000
44.72000 465.000
44.76000 482.000
44.80000 538.000
44.84000 533.000
44.88000 539.000
44.92000 631.000
44.96000 695.000
45.00000 807.000
45.04000 982.000
45.08000 1194.000
45.12000 1473.000
45.16000 1958.000
45.20000 2534.000
45.24000 3383.000
45.28000 4643.000
45.32000 5950.000
45.36000 6835.000
45.40000 7634.000
45.44000 7706.000
45.48000 7313.000
45.52000 6441.000
45.56000 5140.000
45.60000 4137.000
45.64000 3045.000
45.68000 2132.000
45.72000 1543.000
45.76000 1212.000
45.80000 968.000
45.84000 734.000
45.88000 706.000
45.92000 592.000
45.96000 559.000
46.00000 591.000
46.04000 535.000
46.08000 510.000
46.12000 508.000
46.16000 514.000
46.20000 479.000
46.24000 488.000
46.28000 436.000
46.32000 482.000
46.36000 470.000
46.40000 415.000
46.44000 440.000
46.48000 448.000
46.52000 446.000
46.56000 426.000
46.60000 409.000
46.64000 451.000
46.68000 413.000
46.72000 445.000
46.76000 404.000
46.80000 423.000
46.84000 399.000
46.88000 419.000
46.92000 396.000
46.96000 419.000
47.00000 414.000
47.04000 363.000
47.08000 413.000
47.12000 392.000
47.16000 403.000
47.20000 409.000
47.24000 369.000
47.28000 437.000
47.32000 399.000
47.36000 398.000
47.40000 385.000
47.44000 373.000
47.48000 439.000
47.52000 390.000
47.56000 392.000
47.60000 359.000
47.64000 381.000
47.68000 359.000
47.72000 385.000
47.76000 367.000
47.80000 382.000
47.84000 354.000
47.88000 370.000
47.92000 374.000
47.96000 334.000
48.00000 382.000
48.04000 395.000
48.08000 375.000
48.12000 341.000
48.16000 430.000
48.20000 351.000
48.24000 367.000
48.28000 359.000
48.32000 334.000
48.36000 352.000
48.40000 354.000
48.44000 312.000
48.48000 322.000
48.52000 344.000
48.56000 372.000
48.60000 390.000
48.64000 340.000
48.68000 321.000
48.72000 318.000
48.76000 374.000
48.80000 365.000
48.84000 319.000
48.88000 325.000
48.92000 350.000
48.96000 363.000
49.00000 287.000
49.04000 297.000
49.08000 367.000
49.12000 317.000
49.16000 297.000
49.20000 402.000
49.24000 332.000
49.28000 334.000
49.32000 318.000
49.36000 307.000
49.40000 325.000
49.44000 314.000
49.48000 318.000
49.52000 313.000
49.56000 329.000
49.60000 310.000
49.64000 318.000
49.68000 305.000
49.72000 350.000
49.76000 301.000
49.80000 337.000
49.84000 298.000
49.88000 339.000
49.92000 308.000
49.96000 291.000
50.00000 306.000
50.04000 320.000
50.08000 334.000
50.12000 322.000
50.16000 352.000
50.20000 321.000
50.24000 327.000
50.28000 316.000
50.32000 294.000
50.36000 314.000
50.40000 300.000
50.44000 296.000
50.48000 293.000
50.52000 325.000
50.56000 347.000
50.60000 312.000
50.64000 366.000
50.68000 292.000
50.72000 343.000
50.76000 326.000
50.80000 302.000
50.84000 310.000
50.88000 289.000
50.92000 296.000
50.96000 335.000
51.00000 298.000
51.04000 318.000
51.08000 334.000
51.12000 351.000
51.16000 339.000
51.20000 331.000
51.24000 311.000
51.28000 353.000
51.32000 321.000
51.36000 326.000
51.40000 304.000
51.44000 348.000
51.48000 316.000
51.52000 321.000
51.56000 310.000
51.60000 324.000
51.64000 288.000
51.68000 320.000
51.72000 286.000
51.76000 334.000
51.80000 327.000
51.84000 332.000
51.88000 274.000
51.92000 340.000
51.96000 358.000
52.00000 310.000
52.04000 345.000
52.08000 287.000
52.12000 275.000
52.16000 278.000
52.20000 331.000
52.24000 301.000
52.28000 339.000
52.32000 297.000
52.36000 337.000
52.40000 350.000
52.44000 312.000
52.48000 325.000
52.52000 305.000
52.56000 332.000
52.60000 316.000
52.64000 300.000
52.68000 352.000
52.72000 354.000
52.76000 335.000
52.80000 368.000
52.84000 374.000
52.88000 362.000
52.92000 401.000
52.96000 391.000
53.00000 373.000
53.04000 373.000
53.08000 331.000
53.12000 338.000
53.16000 357.000
53.20000 312.000
53.24000 321.000
53.28000 333.000
53.32000 324.000
53.36000 323.000
53.40000 321.000
53.44000 317.000
53.48000 336.000
53.52000 321.000
53.56000 323.000
53.60000 318.000
53.64000 297.000
53.68000 286.000
53.72000 340.000
53.76000 336.000
53.80000 311.000
53.84000 305.000
53.88000 335.000
53.92000 324.000
53.96000 296.000
54.00000 292.000
54.04000 332.000
54.08000 314.000
54.12000 295.000
54.16000 321.000
54.20000 320.000
54.24000 300.000
54.28000 304.000
54.32000 334.000
54.36000 312.000
54.40000 299.000
54.44000 341.000
54.48000 295.000
54.52000 323.000
54.56000 294.000
54.60000 329.000
54.64000 317.000
54.68000 304.000
54.72000 309.000
54.76000 320.000
54.80000 327.000
54.84000 296.000
54.88000 307.000
54.92000 310.000
54.96000 329.000
55.00000 332.000
55.04000 337.000
55.08000 365.000
55.12000 309.000
55.16000 381.000
55.20000 323.000
55.24000 371.000
55.28000 383.000
55.32000 400.000
55.36000 357.000
55.40000 390.000
55.44000 417.000
55.48000 344.000
55.52000 360.000
55.56000 331.000
55.60000 292.000
55.64000 373.000
55.68000 310.000
55.72000 366.000
55.76000 315.000
55.80000 329.000
55.84000 335.000
55.88000 311.000
55.92000 339.000
55.96000 317.000
56.00000 309.000
56.04000 309.000
56.08000 322.000
56.12000 355.000
56.16000 300.000
56.20000 298.000
56.24000 328.000
56.28000 332.000
56.32000 308.000
56.36000 311.000
56.40000 302.000
56.44000 343.000
56.48000 307.000
56.52000 317.000
56.56000 294.000
56.60000 304.000
56.64000 331.000
56.68000 333.000
56.72000 327.000
56.76000 332.000
56.80000 325.000
56.84000 343.000
56.88000 304.000
56.92000 332.000
56.96000 314.000
57.00000 310.000
57.04000 288.000
57.08000 322.000
57.12000 328.000
57.16000 311.000
57.20000 327.000
57.24000 342.000
57.28000 342.000
57.32000 317.000
57.36000 380.000
57.40000 345.000
57.44000 334.000
57.48000 333.000
57.52000 338.000
57.56000 338.000
57.60000 347.000
57.64000 348.000
57.68000 371.000
57.72000 355.000
57.76000 376.000
57.80000 329.000
57.84000 331.000
57.88000 347.000
57.92000 343.000
57.96000 344.000
58.00000 372.000
58.04000 329.000
58.08000 305.000
58.12000 321.000
58.16000 304.000
58.20000 324.000
58.24000 294.000
58.28000 347.000
58.32000 356.000
58.36000 294.000
58.40000 338.000
58.44000 317.000
58.48000 300.000
58.52000 306.000
58.56000 338.000
58.60000 341.000
58.64000 320.000
58.68000 314.000
58.72000 349.000
58.76000 304.000
58.80000 338.000
58.84000 333.000
58.88000 326.000
58.92000 315.000
58.96000 329.000
59.00000 350.000
59.04000 346.000
59.08000 376.000
59.12000 359.000
59.16000 335.000
59.20000 304.000
59.24000 316.000
59.28000 336.000
59.32000 341.000
59.36000 313.000
59.40000 351.000
59.44000 331.000
59.48000 342.000
59.52000 346.000
59.56000 332.000
59.60000 364.000
59.64000 301.000
59.68000 333.000
59.72000 294.000
59.76000 377.000
59.80000 358.000
59.84000 341.000
59.88000 315.000
59.92000 352.000