File: XRD/18.xy
5.00000 1177.000
5.04000 1160.000
5.08000 1099.000
5.12000 1152.000
5.16000 1104.000
5.20000 1159.000
5.24000 1078.000
5.28000 1055.000
5.32000 1076.000
5.36000 1079.000
5.40000 997.000
5.44000 1005.000
5.48000 1071.000
5.52000 1030.000
5.56000 955.000
5.60000 1025.000
5.64000 1047.000
5.68000 999.000
5.72000 960.000
5.76000 981.000
5.80000 974.000
5.84000 945.000
5.88000 937.000
5.92000 949.000
5.96000 940.000
6.00000 967.000
6.04000 940.000
6.08000 938.000
6.12000 950.000
6.16000 892.000
6.20000 926.000
6.24000 906.000
6.28000 882.000
6.32000 894.000
6.36000 869.000
6.40000 840.000
6.44000 921.000
6.48000 910.000
6.52000 899.000
6.56000 824.000
6.60000 889.000
6.64000 866.000
6.68000 855.000
6.72000 874.000
6.76000 829.000
6.80000 803.000
6.84000 802.000
6.88000 802.000
6.92000 826.000
6.96000 781.000
7.00000 803.000
7.04000 829.000
7.08000 773.000
7.12000 803.000
7.16000 736.000
7.20000 775.000
7.24000 784.000
7.28000 803.000
7.32000 782.000
7.36000 767.000
7.40000 764.000
7.44000 801.000
7.48000 748.000
7.52000 780.000
7.56000 736.000
7.60000 756.000
7.64000 754.000
7.68000 723.000
7.72000 780.000
7.76000 791.000
7.80000 744.000
7.84000 749.000
7.88000 764.000
7.92000 711.000
7.96000 716.000
8.00000 651.000
8.04000 710.000
8.08000 715.000
8.12000 680.000
8.16000 696.000
8.20000 694.000
8.24000 633.000
8.28000 739.000
8.32000 721.000
8.36000 719.000
8.40000 672.000
8.44000 669.000
8.48000 738.000
8.52000 702.000
8.56000 650.000
8.60000 698.000
8.64000 664.000
8.68000 705.000
8.72000 683.000
8.76000 678.000
8.80000 595.000
8.84000 640.000
8.88000 686.000
8.92000 676.000
8.96000 636.000
9.00000 626.000
9.04000 633.000
9.08000 669.000
9.12000 641.000
9.16000 680.000
9.20000 614.000
9.24000 637.000
9.28000 637.000
9.32000 631.000
9.36000 638.000
9.40000 673.000
9.44000 609.000
9.48000 634.000
9.52000 593.000
9.56000 561.000
9.60000 633.000
9.64000 630.000
9.68000 611.000
9.72000 571.000
9.76000 575.000
9.80000 608.000
9.84000 616.000
9.88000 596.000
9.92000 580.000
9.96000 571.000
10.00000 620.000
10.04000 573.000
10.08000 613.000
10.12000 603.000
10.16000 566.000
10.20000 556.000
10.24000 560.000
10.28000 651.000
10.32000 588.000
10.36000 583.000
10.40000 567.000
10.44000 598.000
10.48000 525.000
10.52000 593.000
10.56000 531.000
10.60000 596.000
10.64000 611.000
10.68000 576.000
10.72000 587.000
10.76000 599.000
10.80000 544.000
10.84000 580.000
10.88000 566.000
10.92000 643.000
10.96000 572.000
11.00000 543.000
11.04000 564.000
11.08000 587.000
11.12000 550.000
11.16000 536.000
11.20000 576.000
11.24000 560.000
11.28000 596.000
11.32000 583.000
11.36000 585.000
11.40000 555.000
11.44000 593.000
11.48000 624.000
11.52000 625.000
11.56000 585.000
11.60000 620.000
11.64000 603.000
11.68000 614.000
11.72000 598.000
11.76000 660.000
11.80000 643.000
11.84000 652.000
11.88000 643.000
11.92000 652.000
11.96000 656.000
12.00000 675.000
12.04000 619.000
12.08000 669.000
12.12000 611.000
12.16000 630.000
12.20000 621.000
12.24000 606.000
12.28000 646.000
12.32000 674.000
12.36000 649.000
12.40000 676.000
12.44000 658.000
12.48000 624.000
12.52000 702.000
12.56000 707.000
12.60000 705.000
12.64000 724.000
12.68000 712.000
12.72000 733.000
12.76000 757.000
12.80000 785.000
12.84000 837.000
12.88000 918.000
12.92000 1030.000
12.96000 1091.000
13.00000 1106.000
13.04000 1119.000
13.08000 1216.000
13.12000 1377.000
13.16000 1585.000
13.20000 1747.000
13.24000 2041.000
13.28000 2031.000
13.32000 1708.000
13.36000 1399.000
13.40000 1306.000
13.44000 1279.000
13.48000 1254.000
13.52000 1197.000
13.56000 1255.000
13.60000 1294.000
13.64000 1373.000
13.68000 1368.000
13.72000 1400.000
13.76000 1529.000
13.80000 1695.000
13.84000 1833.000
13.88000 2034.000
13.92000 2276.000
13.96000 2709.000
14.00000 3290.000
14.04000 3768.000
14.08000 4198.000
14.12000 4226.000
14.16000 4366.000
14.20000 4740.000
14.24000 5457.000
14.28000 6916.000
14.32000 9069.000
14.36000 13538.000
14.40000 20342.000
14.44000 31636.000
14.48000 50967.000
14.52000 83730.000
14.56000 153933.000
14.60000 289127.000
14.64000 486373.700
14.68000 647269.400
14.72000 589360.000
14.76000 416845.000
14.80000 229164.500
14.84000 128464.600
14.88000 74884.000
14.92000 44131.000
14.96000 27439.000
15.00000 18312.000
15.04000 13743.000
15.08000 11379.000
15.12000 9656.000
15.16000 8342.000
15.20000 7395.000
15.24000 6396.000
15.28000 5541.000
15.32000 4792.000
15.36000 4240.000
15.40000 3655.000
15.44000 3045.000
15.48000 2662.000
15.52000 2269.000
15.56000 2089.000
15.60000 1890.000
15.64000 1684.000
15.68000 1566.000
15.72000 1391.000
15.76000 1309.000
15.80000 1317.000
15.84000 1201.000
15.88000 1175.000
15.92000 1083.000
15.96000 1118.000
16.00000 1058.000
16.04000 1000.000
16.08000 980.000
16.12000 881.000
16.16000 847.000
16.20000 830.000
16.24000 846.000
16.28000 840.000
16.32000 782.000
16.36000 801.000
16.40000 769.000
16.44000 757.000
16.48000 723.000
16.52000 728.000
16.56000 738.000
16.60000 733.000
16.64000 725.000
16.68000 707.000
16.72000 695.000
16.76000 725.000
16.80000 692.000
16.84000 667.000
16.88000 658.000
16.92000 669.000
16.96000 669.000
17.00000 646.000
17.04000 672.000
17.08000 700.000
17.12000 646.000
17.16000 677.000
17.20000 666.000
17.24000 650.000
17.28000 599.000
17.32000 683.000
17.36000 614.000
17.40000 671.000
17.44000 625.000
17.48000 623.000
17.52000 615.000
17.56000 657.000
17.60000 649.000
17.64000 617.000
17.68000 625.000
17.72000 615.000
17.76000 631.000
17.80000 607.000
17.84000 658.000
17.88000 608.000
17.92000 631.000
17.96000 630.000
18.00000 655.000
18.04000 621.000
18.08000 624.000
18.12000 617.000
18.16000 632.000
18.20000 621.000
18.24000 623.000
18.28000 659.000
18.32000 643.000
18.36000 666.000
18.40000 660.000
18.44000 609.000
18.48000 657.000
18.52000 641.000
18.56000 627.000
18.60000 652.000
18.64000 649.000
18.68000 657.000
18.72000 630.000
18.76000 602.000
18.80000 649.000
18.84000 621.000
18.88000 659.000
18.92000 675.000
18.96000 635.000
19.00000 624.000
19.04000 670.000
19.08000 673.000
19.12000 647.000
19.16000 685.000
19.20000 623.000
19.24000 635.000
19.28000 698.000
19.32000 655.000
19.36000 669.000
19.40000 698.000
19.44000 696.000
19.48000 707.000
19.52000 695.000
19.56000 669.000
19.60000 692.000
19.64000 683.000
19.68000 656.000
19.72000 669.000
19.76000 735.000
19.80000 620.000
19.84000 709.000
19.88000 701.000
19.92000 711.000
19.96000 699.000
20.00000 697.000
20.04000 723.000
20.08000 771.000
20.12000 667.000
20.16000 722.000
20.20000 717.000
20.24000 728.000
20.28000 709.000
20.32000 747.000
20.36000 722.000
20.40000 788.000
20.44000 806.000
20.48000 787.000
20.52000 864.000
20.56000 857.000
20.60000 971.000
20.64000 1009.000
20.68000 1068.000
20.72000 1236.000
20.76000 1383.000
20.80000 1485.000
20.84000 1379.000
20.88000 1235.000
20.92000 1078.000
20.96000 978.000
21.00000 868.000
21.04000 804.000
21.08000 785.000
21.12000 810.000
21.16000 779.000
21.20000 763.000
21.24000 767.000
21.28000 786.000
21.32000 813.000
21.36000 803.000
21.40000 773.000
21.44000 808.000
21.48000 757.000
21.52000 788.000
21.56000 774.000
21.60000 855.000
21.64000 803.000
21.68000 840.000
21.72000 768.000
21.76000 791.000
21.80000 796.000
21.84000 784.000
21.88000 792.000
21.92000 808.000
21.96000 856.000
22.00000 808.000
22.04000 831.000
22.08000 872.000
22.12000 864.000
22.16000 831.000
22.20000 867.000
22.24000 890.000
22.28000 879.000
22.32000 901.000
22.36000 877.000
22.40000 888.000
22.44000 804.000
22.48000 867.000
22.52000 831.000
22.56000 843.000
22.60000 841.000
22.64000 818.000
22.68000 774.000
22.72000 882.000
22.76000 822.000
22.80000 822.000
22.84000 803.000
22.88000 862.000
22.92000 846.000
22.96000 870.000
23.00000 844.000
23.04000 840.000
23.08000 863.000
23.12000 826.000
23.16000 867.000
23.20000 889.000
23.24000 838.000
23.28000 867.000
23.32000 851.000
23.36000 805.000
23.40000 776.000
23.44000 841.000
23.48000 856.000
23.52000 907.000
23.56000 854.000
23.60000 821.000
23.64000 833.000
23.68000 843.000
23.72000 871.000
23.76000 846.000
23.80000 820.000
23.84000 854.000
23.88000 873.000
23.92000 888.000
23.96000 847.000
24.00000 842.000
24.04000 853.000
24.08000 894.000
24.12000 867.000
24.16000 871.000
24.20000 914.000
24.24000 822.000
24.28000 919.000
24.32000 873.000
24.36000 867.000
24.40000 878.000
24.44000 884.000
24.48000 900.000
24.52000 881.000
24.56000 857.000
24.60000 871.000
24.64000 861.000
24.68000 911.000
24.72000 900.000
24.76000 891.000
24.80000 873.000
24.84000 838.000
24.88000 857.000
24.92000 860.000
24.96000 908.000
25.00000 872.000
25.04000 886.000
25.08000 856.000
25.12000 837.000
25.16000 877.000
25.20000 881.000
25.24000 864.000
25.28000 853.000
25.32000 879.000
25.36000 848.000
25.40000 875.000
25.44000 904.000
25.48000 918.000
25.52000 937.000
25.56000 903.000
25.60000 940.000
25.64000 902.000
25.68000 900.000
25.72000 843.000
25.76000 837.000
25.80000 872.000
25.84000 885.000
25.88000 890.000
25.92000 863.000
25.96000 865.000
26.00000 885.000
26.04000 877.000
26.08000 864.000
26.12000 884.000
26.16000 881.000
26.20000 915.000
26.24000 952.000
26.28000 1005.000
26.32000 986.000
26.36000 1043.000
26.40000 1099.000
26.44000 1134.000
26.48000 1208.000
26.52000 1213.000
26.56000 1299.000
26.60000 1396.000
26.64000 1518.000
26.68000 1532.000
26.72000 1485.000
26.76000 1364.000
26.80000 1279.000
26.84000 1104.000
26.88000 1023.000
26.92000 1000.000
26.96000 980.000
27.00000 970.000
27.04000 945.000
27.08000 917.000
27.12000 956.000
27.16000 928.000
27.20000 973.000
27.24000 940.000
27.28000 967.000
27.32000 947.000
27.36000 989.000
27.40000 1063.000
27.44000 977.000
27.48000 995.000
27.52000 970.000
27.56000 1004.000
27.60000 994.000
27.64000 1016.000
27.68000 1001.000
27.72000 1049.000
27.76000 1074.000
27.80000 1061.000
27.84000 1092.000
27.88000 1106.000
27.92000 1102.000
27.96000 1086.000
28.00000 1140.000
28.04000 1192.000
28.08000 1213.000
28.12000 1328.000
28.16000 1452.000
28.20000 1666.000
28.24000 1692.000
28.28000 1958.000
28.32000 2113.000
28.36000 2026.000
28.40000 1948.000
28.44000 1862.000
28.48000 1849.000
28.52000 1817.000
28.56000 1768.000
28.60000 1804.000
28.64000 1836.000
28.68000 1878.000
28.72000 1855.000
28.76000 1975.000
28.80000 2031.000
28.84000 2221.000
28.88000 2257.000
28.92000 2538.000
28.96000 2762.000
29.00000 3073.000
29.04000 3406.000
29.08000 3948.000
29.12000 4775.000
29.16000 6065.000
29.20000 7788.000
29.24000 10875.000
29.28000 15210.000
29.32000 23125.000
29.36000 35105.000
29.40000 53939.000
29.44000 86394.000
29.48000 142532.000
29.52000 223284.800
29.56000 304526.000
29.60000 353802.700
29.64000 336723.800
29.68000 281614.200
29.72000 203919.500
29.76000 135277.500
29.80000 85130.000
29.84000 51934.000
29.88000 31798.000
29.92000 20029.000
29.96000 13689.000
30.00000 10183.000
30.04000 8110.000
30.08000 6806.000
30.12000 5982.000
30.16000 5622.000
30.20000 5189.000
30.24000 4701.000
30.28000 4539.000
30.32000 4242.000
30.36000 4269.000
30.40000 3849.000
30.44000 3737.000
30.48000 3626.000
30.52000 3472.000
30.56000 3290.000
30.60000 3116.000
30.64000 2976.000
30.68000 2922.000
30.72000 2601.000
30.76000 2499.000
30.80000 2392.000
30.84000 2326.000
30.88000 2161.000
30.92000 2037.000
30.96000 1924.000
31.00000 1820.000
31.04000 1732.000
31.08000 1689.000
31.12000 1587.000
31.16000 1584.000
31.20000 1527.000
31.24000 1482.000
31.28000 1482.000
31.32000 1481.000
31.36000 1329.000
31.40000 1235.000
31.44000 1184.000
31.48000 1111.000
31.52000 1069.000
31.56000 1070.000
31.60000 1048.000
31.64000 961.000
31.68000 939.000
31.72000 920.000
31.76000 924.000
31.80000 988.000
31.84000 878.000
31.88000 868.000
31.92000 914.000
31.96000 851.000
32.00000 907.000
32.04000 925.000
32.08000 860.000
32.12000 837.000
32.16000 821.000
32.20000 746.000
32.24000 844.000
32.28000 785.000
32.32000 804.000
32.36000 836.000
32.40000 813.000
32.44000 797.000
32.48000 768.000
32.52000 765.000
32.56000 760.000
32.60000 767.000
32.64000 766.000
32.68000 752.000
32.72000 753.000
32.76000 764.000
32.80000 749.000
32.84000 779.000
32.88000 842.000
32.92000 870.000
32.96000 1018.000
33.00000 1057.000
33.04000 1220.000
33.08000 1380.000
33.12000 1643.000
33.16000 1924.000
33.20000 1864.000
33.24000 1893.000
33.28000 1632.000
33.32000 1367.000
33.36000 1129.000
33.40000 896.000
33.44000 874.000
33.48000 758.000
33.52000 747.000
33.56000 700.000
33.60000 704.000
33.64000 631.000
33.68000 662.000
33.72000 645.000
33.76000 643.000
33.80000 640.000
33.84000 643.000
33.88000 689.000
33.92000 613.000
33.96000 572.000
34.00000 651.000
34.04000 623.000
34.08000 605.000
34.12000 570.000
34.16000 587.000
34.20000 593.000
34.24000 576.000
34.28000 539.000
34.32000 587.000
34.36000 570.000
34.40000 565.000
34.44000 550.000
34.48000 600.000
34.52000 619.000
34.56000 543.000
34.60000 565.000
34.64000 575.000
34.68000 563.000
34.72000 596.000
34.76000 558.000
34.80000 559.000
34.84000 563.000
34.88000 551.000
34.92000 565.000
34.96000 586.000
35.00000 507.000
35.04000 507.000
35.08000 536.000
35.12000 533.000
35.16000 533.000
35.20000 504.000
35.24000 555.000
35.28000 543.000
35.32000 507.000
35.36000 485.000
35.40000 505.000
35.44000 543.000
35.48000 509.000
35.52000 490.000
35.56000 481.000
35.60000 503.000
35.64000 508.000
35.68000 509.000
35.72000 518.000
35.76000 476.000
35.80000 525.000
35.84000 491.000
35.88000 516.000
35.92000 478.000
35.96000 512.000
36.00000 482.000
36.04000 508.000
36.08000 464.000
36.12000 553.000
36.16000 582.000
36.20000 605.000
36.24000 598.000
36.28000 628.000
36.32000 635.000
36.36000 648.000
36.40000 637.000
36.44000 686.000
36.48000 645.000
36.52000 654.000
36.56000 639.000
36.60000 570.000
36.64000 554.000
36.68000 482.000
36.72000 485.000
36.76000 446.000
36.80000 455.000
36.84000 458.000
36.88000 411.000
36.92000 425.000
36.96000 487.000
37.00000 442.000
37.04000 445.000
37.08000 442.000
37.12000 409.000
37.16000 429.000
37.20000 395.000
37.24000 448.000
37.28000 418.000
37.32000 434.000
37.36000 456.000
37.40000 414.000
37.44000 443.000
37.48000 420.000
37.52000 459.000
37.56000 414.000
37.60000 415.000
37.64000 403.000
37.68000 463.000
37.72000 393.000
37.76000 430.000
37.80000 390.000
37.84000 390.000
37.88000 395.000
37.92000 411.000
37.96000 440.000
38.00000 416.000
38.04000 399.000
38.08000 372.000
38.12000 420.000
38.16000 378.000
38.20000 376.000
38.24000 407.000
38.28000 408.000
38.32000 416.000
38.36000 432.000
38.40000 381.000
38.44000 406.000
38.48000 403.000
38.52000 396.000
38.56000 397.000
38.60000 382.000
38.64000 361.000
38.68000 411.000
38.72000 388.000
38.76000 413.000
38.80000 378.000
38.84000 407.000
38.88000 409.000
38.92000 375.000
38.96000 356.000
39.00000 366.000
39.04000 380.000
39.08000 399.000
39.12000 418.000
39.16000 387.000
39.20000 377.000
39.24000 373.000
39.28000 370.000
39.32000 378.000
39.36000 391.000
39.40000 370.000
39.44000 441.000
39.48000 388.000
39.52000 388.000
39.56000 395.000
39.60000 374.000
39.64000 344.000
39.68000 398.000
39.72000 364.000
39.76000 388.000
39.80000 368.000
39.84000 369.000
39.88000 376.000
39.92000 353.000
39.96000 423.000
40.00000 357.000
40.04000 404.000
40.08000 415.000
40.12000 366.000
40.16000 387.000
40.20000 413.000
40.24000 376.000
40.28000 391.000
40.32000 385.000
40.36000 449.000
40.40000 416.000
40.44000 386.000
40.48000 406.000
40.52000 420.000
40.56000 421.000
40.60000 443.000
40.64000 404.000
40.68000 384.000
40.72000 356.000
40.76000 381.000
40.80000 398.000
40.84000 384.000
40.88000 406.000
40.92000 362.000
40.96000 369.000
41.00000 348.000
41.04000 369.000
41.08000 378.000
41.12000 375.000
41.16000 404.000
41.20000 394.000
41.24000 385.000
41.28000 383.000
41.32000 376.000
41.36000 402.000
41.40000 399.000
41.44000 387.000
41.48000 379.000
41.52000 379.000
41.56000 381.000
41.60000 413.000
41.64000 396.000
41.68000 399.000
41.72000 379.000
41.76000 385.000
41.80000 399.000
41.84000 396.000
41.88000 431.000
41.92000 437.000
41.96000 404.000
42.00000 466.000
42.04000 454.000
42.08000 454.000
42.12000 493.000
42.16000 489.000
42.20000 550.000
42.24000 655.000
42.28000 732.000
42.32000 755.000
42.36000 790.000
42.40000 742.000
42.44000 779.000
42.48000 636.000
42.52000 580.000
42.56000 504.000
42.60000 462.000
42.64000 489.000
42.68000 412.000
42.72000 450.000
42.76000 425.000
42.80000 418.000
42.84000 401.000
42.88000 418.000
42.92000 422.000
42.96000 447.000
43.00000 413.000
43.04000 431.000
43.08000 455.000
43.12000 479.000
43.16000 435.000
43.20000 421.000
43.24000 436.000
43.28000 459.000
43.32000 409.000
43.36000 409.000
43.40000 410.000
43.44000 446.000
43.48000 414.000
43.52000 395.000
43.56000 419.000
43.60000 433.000
43.64000 409.000
43.68000 445.000
43.72000 426.000
43.76000 443.000
43.80000 415.000
43.84000 390.000
43.88000 433.000
43.92000 461.000
43.96000 443.000
44.00000 485.000
44.04000 448.000
44.08000 446.000
44.12000 497.000
44.16000 465.000
44.20000 474.000
44.24000 487.000
44.28000 490.000
44.32000 498.000
44.36000 514.000
44.40000 511.000
44.44000 545.000
44.48000 534.000
44.52000 615.000
44.56000 688.000
44.60000 739.000
44.64000 816.000
44.68000 986.000
44.72000 1276.000
44.76000 1618.000
44.80000 2148.000
44.84000 2917.000
44.88000 4255.000
44.92000 6156.000
44.96000 8395.000
45.00000 10439.000
45.04000 11950.000
45.08000 12552.000
45.12000 12180.000
45.16000 10664.000
45.20000 9041.000
45.24000 6991.000
45.28000 5235.000
45.32000 3786.000
45.36000 2826.000
45.40000 2038.000
45.44000 1514.000
45.48000 1166.000
45.52000 1016.000
45.56000 876.000
45.60000 730.000
45.64000 715.000
45.68000 669.000
45.72000 653.000
45.76000 592.000
45.80000 572.000
45.84000 561.000
45.88000 558.000
45.92000 545.000
45.96000 556.000
46.00000 523.000
46.04000 496.000
46.08000 524.000
46.12000 465.000
46.16000 462.000
46.20000 485.000
46.24000 465.000
46.28000 469.000
46.32000 479.000
46.36000 433.000
46.40000 452.000
46.44000 452.000
46.48000 457.000
46.52000 482.000
46.56000 420.000
46.60000 458.000
46.64000 471.000
46.68000 445.000
46.72000 415.000
46.76000 427.000
46.80000 439.000
46.84000 412.000
46.88000 429.000
46.92000 437.000
46.96000 391.000
47.00000 430.000
47.04000 413.000
47.08000 406.000
47.12000 393.000
47.16000 442.000
47.20000 396.000
47.24000 401.000
47.28000 385.000
47.32000 394.000
47.36000 380.000
47.40000 410.000
47.44000 380.000
47.48000 379.000
47.52000 388.000
47.56000 378.000
47.60000 390.000
47.64000 401.000
47.68000 397.000
47.72000 403.000
47.76000 386.000
47.80000 376.000
47.84000 354.000
47.88000 371.000
47.92000 352.000
47.96000 341.000
48.00000 369.000
48.04000 312.000
48.08000 357.000
48.12000 337.000
48.16000 386.000
48.20000 357.000
48.24000 328.000
48.28000 340.000
48.32000 344.000
48.36000 366.000
48.40000 329.000
48.44000 324.000
48.48000 345.000
48.52000 342.000
48.56000 348.000
48.60000 329.000
48.64000 367.000
48.68000 337.000
48.72000 367.000
48.76000 377.000
48.80000 370.000
48.84000 339.000
48.88000 355.000
48.92000 350.000
48.96000 330.000
49.00000 341.000
49.04000 335.000
49.08000 313.000
49.12000 352.000
49.16000 359.000
49.20000 328.000
49.24000 336.000
49.28000 359.000
49.32000 321.000
49.36000 337.000
49.40000 309.000
49.44000 276.000
49.48000 342.000
49.52000 326.000
49.56000 353.000
49.60000 357.000
49.64000 335.000
49.68000 331.000
49.72000 358.000
49.76000 304.000
49.80000 301.000
49.84000 351.000
49.88000 331.000
49.92000 334.000
49.96000 320.000
50.00000 326.000
50.04000 302.000
50.08000 309.000
50.12000 301.000
50.16000 314.000
50.20000 336.000
50.24000 351.000
50.28000 342.000
50.32000 352.000
50.36000 308.000
50.40000 326.000
50.44000 341.000
50.48000 339.000
50.52000 323.000
50.56000 302.000
50.60000 330.000
50.64000 304.000
50.68000 321.000
50.72000 304.000
50.76000 333.000
50.80000 324.000
50.84000 335.000
50.88000 327.000
50.92000 330.000
50.96000 345.000
51.00000 344.000
51.04000 311.000
51.08000 320.000
51.12000 319.000
51.16000 301.000
51.20000 296.000
51.24000 325.000
51.28000 326.000
51.32000 335.000
51.36000 356.000
51.40000 318.000
51.44000 315.000
51.48000 331.000
51.52000 296.000
51.56000 338.000
51.60000 298.000
51.64000 304.000
51.68000 333.000
51.72000 318.000
51.76000 320.000
51.80000 294.000
51.84000 331.000
51.88000 320.000
51.92000 311.000
51.96000 350.000
52.00000 337.000
52.04000 321.000
52.08000 305.000
52.12000 331.000
52.16000 332.000
52.20000 318.000
52.24000 321.000
52.28000 341.000
52.32000 317.000
52.36000 315.000
52.40000 326.000
52.44000 365.000
52.48000 358.000
52.52000 387.000
52.56000 363.000
52.60000 358.000
52.64000 396.000
52.68000 368.000
52.72000 351.000
52.76000 332.000
52.80000 358.000
52.84000 350.000
52.88000 329.000
52.92000 313.000
52.96000 313.000
53.00000 303.000
53.04000 310.000
53.08000 299.000
53.12000 336.000
53.16000 322.000
53.20000 313.000
53.24000 329.000
53.28000 339.000
53.32000 344.000
53.36000 298.000
53.40000 297.000
53.44000 305.000
53.48000 346.000
53.52000 320.000
53.56000 283.000
53.60000 317.000
53.64000 338.000
53.68000 314.000
53.72000 295.000
53.76000 287.000
53.80000 317.000
53.84000 292.000
53.88000 318.000
53.92000 323.000
53.96000 336.000
54.00000 310.000
54.04000 291.000
54.08000 317.000
54.12000 316.000
54.16000 344.000
54.20000 321.000
54.24000 357.000
54.28000 315.000
54.32000 331.000
54.36000 289.000
54.40000 308.000
54.44000 310.000
54.48000 296.000
54.52000 335.000
54.56000 312.000
54.60000 350.000
54.64000 340.000
54.68000 359.000
54.72000 336.000
54.76000 382.000
54.80000 378.000
54.84000 376.000
54.88000 403.000
54.92000 403.000
54.96000 403.000
55.00000 356.000
55.04000 355.000
55.08000 357.000
55.12000 322.000
55.16000 319.000
55.20000 326.000
55.24000 349.000
55.28000 303.000
55.32000 331.000
55.36000 326.000
55.40000 298.000
55.44000 339.000
55.48000 337.000
55.52000 326.000
55.56000 316.000
55.60000 324.000
55.64000 321.000
55.68000 290.000
55.72000 287.000
55.76000 326.000
55.80000 312.000
55.84000 287.000
55.88000 301.000
55.92000 322.000
55.96000 339.000
56.00000 315.000
56.04000 309.000
56.08000 325.000
56.12000 310.000
56.16000 329.000
56.20000 326.000
56.24000 330.000
56.28000 293.000
56.32000 331.000
56.36000 319.000
56.40000 318.000
56.44000 290.000
56.48000 349.000
56.52000 331.000
56.56000 305.000
56.60000 318.000
56.64000 334.000
56.68000 333.000
56.72000 362.000
56.76000 331.000
56.80000 319.000
56.84000 302.000
56.88000 312.000
56.92000 315.000
56.96000 367.000
57.00000 350.000
57.04000 335.000
57.08000 337.000
57.12000 353.000
57.16000 318.000
57.20000 352.000
57.24000 344.000
57.28000 308.000
57.32000 366.000
57.36000 296.000
57.40000 343.000
57.44000 338.000
57.48000 332.000
57.52000 325.000
57.56000 339.000
57.60000 353.000
57.64000 316.000
57.68000 312.000
57.72000 353.000
57.76000 307.000
57.80000 302.000
57.84000 357.000
57.88000 322.000
57.92000 315.000
57.96000 323.000
58.00000 330.000
58.04000 350.000
58.08000 340.000
58.12000 341.000
58.16000 320.000
58.20000 294.000
58.24000 328.000
58.28000 330.000
58.32000 322.000
58.36000 330.000
58.40000 374.000
58.44000 359.000
58.48000 364.000
58.52000 363.000
58.56000 370.000
58.60000 375.000
58.64000 359.000
58.68000 343.000
58.72000 340.000
58.76000 346.000
58.80000 351.000
58.84000 315.000
58.88000 362.000
58.92000 360.000
58.96000 334.000
59.00000 347.000
59.04000 361.000
59.08000 337.000
59.12000 379.000
59.16000 354.000
59.20000 337.000
59.24000 373.000
59.28000 353.000
59.32000 356.000
59.36000 360.000
59.40000 344.000
59.44000 379.000
59.48000 352.000
59.52000 380.000
59.56000 349.000
59.60000 346.000
59.64000 399.000
59.68000 377.000
59.72000 371.000
59.76000 388.000
59.80000 369.000
59.84000 360.000
59.88000 421.000
59.92000 385.000