File: XRD/19.xy
5.00000 1099.000
5.04000 1062.000
5.08000 1078.000
5.12000 987.000
5.16000 1050.000
5.20000 1072.000
5.24000 1092.000
5.28000 1074.000
5.32000 1024.000
5.36000 979.000
5.40000 1000.000
5.44000 1002.000
5.48000 980.000
5.52000 967.000
5.56000 968.000
5.60000 985.000
5.64000 958.000
5.68000 941.000
5.72000 876.000
5.76000 871.000
5.80000 919.000
5.84000 925.000
5.88000 925.000
5.92000 931.000
5.96000 899.000
6.00000 853.000
6.04000 885.000
6.08000 903.000
6.12000 890.000
6.16000 890.000
6.20000 866.000
6.24000 836.000
6.28000 877.000
6.32000 834.000
6.36000 878.000
6.40000 848.000
6.44000 809.000
6.48000 866.000
6.52000 771.000
6.56000 801.000
6.60000 797.000
6.64000 776.000
6.68000 796.000
6.72000 812.000
6.76000 824.000
6.80000 867.000
6.84000 814.000
6.88000 786.000
6.92000 790.000
6.96000 780.000
7.00000 777.000
7.04000 798.000
7.08000 733.000
7.12000 868.000
7.16000 817.000
7.20000 879.000
7.24000 937.000
7.28000 968.000
7.32000 1157.000
7.36000 1294.000
7.40000 1769.000
7.44000 2364.000
7.48000 2762.000
7.52000 2697.000
7.56000 2362.000
7.60000 1821.000
7.64000 1408.000
7.68000 1126.000
7.72000 944.000
7.76000 887.000
7.80000 799.000
7.84000 777.000
7.88000 760.000
7.92000 720.000
7.96000 703.000
8.00000 663.000
8.04000 672.000
8.08000 688.000
8.12000 699.000
8.16000 614.000
8.20000 678.000
8.24000 659.000
8.28000 628.000
8.32000 622.000
8.36000 682.000
8.40000 616.000
8.44000 631.000
8.48000 660.000
8.52000 647.000
8.56000 627.000
8.60000 589.000
8.64000 642.000
8.68000 655.000
8.72000 634.000
8.76000 611.000
8.80000 601.000
8.84000 618.000
8.88000 624.000
8.92000 581.000
8.96000 569.000
9.00000 619.000
9.04000 592.000
9.08000 581.000
9.12000 596.000
9.16000 598.000
9.20000 575.000
9.24000 568.000
9.28000 568.000
9.32000 608.000
9.36000 629.000
9.40000 576.000
9.44000 617.000
9.48000 607.000
9.52000 588.000
9.56000 596.000
9.60000 535.000
9.64000 538.000
9.68000 580.000
9.72000 560.000
9.76000 560.000
9.80000 570.000
9.84000 567.000
9.88000 565.000
9.92000 616.000
9.96000 598.000
10.00000 555.000
10.04000 506.000
10.08000 587.000
10.12000 569.000
10.16000 566.000
10.20000 576.000
10.24000 571.000
10.28000 529.000
10.32000 586.000
10.36000 507.000
10.40000 560.000
10.44000 553.000
10.48000 535.000
10.52000 566.000
10.56000 533.000
10.60000 544.000
10.64000 516.000
10.68000 529.000
10.72000 490.000
10.76000 564.000
10.80000 519.000
10.84000 509.000
10.88000 503.000
10.92000 503.000
10.96000 502.000
11.00000 551.000
11.04000 544.000
11.08000 536.000
11.12000 508.000
11.16000 548.000
11.20000 517.000
11.24000 533.000
11.28000 492.000
11.32000 535.000
11.36000 534.000
11.40000 575.000
11.44000 568.000
11.48000 552.000
11.52000 635.000
11.56000 651.000
11.60000 662.000
11.64000 752.000
11.68000 708.000
11.72000 639.000
11.76000 602.000
11.80000 562.000
11.84000 561.000
11.88000 534.000
11.92000 522.000
11.96000 516.000
12.00000 555.000
12.04000 567.000
12.08000 573.000
12.12000 566.000
12.16000 562.000
12.20000 558.000
12.24000 541.000
12.28000 564.000
12.32000 596.000
12.36000 560.000
12.40000 589.000
12.44000 598.000
12.48000 615.000
12.52000 614.000
12.56000 603.000
12.60000 616.000
12.64000 650.000
12.68000 661.000
12.72000 701.000
12.76000 700.000
12.80000 762.000
12.84000 733.000
12.88000 828.000
12.92000 819.000
12.96000 845.000
13.00000 880.000
13.04000 880.000
13.08000 960.000
13.12000 1138.000
13.16000 1304.000
13.20000 1326.000
13.24000 1291.000
13.28000 1120.000
13.32000 884.000
13.36000 905.000
13.40000 807.000
13.44000 742.000
13.48000 807.000
13.52000 819.000
13.56000 758.000
13.60000 861.000
13.64000 895.000
13.68000 897.000
13.72000 1012.000
13.76000 1068.000
13.80000 1210.000
13.84000 1395.000
13.88000 1693.000
13.92000 2089.000
13.96000 2403.000
14.00000 2902.000
14.04000 3097.000
14.08000 3348.000
14.12000 3830.000
14.16000 4430.000
14.20000 5844.000
14.24000 8117.000
14.28000 11669.000
14.32000 17450.000
14.36000 26694.000
14.40000 41445.000
14.44000 66100.000
14.48000 109709.000
14.52000 187727.300
14.56000 295380.000
14.60000 394726.500
14.64000 423284.600
14.68000 349929.600
14.72000 229491.100
14.76000 128231.300
14.80000 70827.000
14.84000 39477.000
14.88000 22923.000
14.92000 14466.000
14.96000 9898.000
15.00000 7779.000
15.04000 6617.000
15.08000 5602.000
15.12000 4992.000
15.16000 4315.000
15.20000 3749.000
15.24000 3307.000
15.28000 2943.000
15.32000 2630.000
15.36000 2173.000
15.40000 1854.000
15.44000 1638.000
15.48000 1379.000
15.52000 1293.000
15.56000 1197.000
15.60000 1049.000
15.64000 1008.000
15.68000 1032.000
15.72000 931.000
15.76000 906.000
15.80000 887.000
15.84000 853.000
15.88000 811.000
15.92000 767.000
15.96000 814.000
16.00000 804.000
16.04000 794.000
16.08000 699.000
16.12000 638.000
16.16000 667.000
16.20000 673.000
16.24000 728.000
16.28000 654.000
16.32000 634.000
16.36000 701.000
16.40000 601.000
16.44000 600.000
16.48000 601.000
16.52000 647.000
16.56000 640.000
16.60000 645.000
16.64000 645.000
16.68000 620.000
16.72000 645.000
16.76000 608.000
16.80000 563.000
16.84000 634.000
16.88000 595.000
16.92000 579.000
16.96000 643.000
17.00000 616.000
17.04000 592.000
17.08000 628.000
17.12000 616.000
17.16000 604.000
17.20000 588.000
17.24000 616.000
17.28000 630.000
17.32000 584.000
17.36000 557.000
17.40000 568.000
17.44000 596.000
17.48000 582.000
17.52000 628.000
17.56000 652.000
17.60000 586.000
17.64000 562.000
17.68000 580.000
17.72000 580.000
17.76000 633.000
17.80000 600.000
17.84000 614.000
17.88000 616.000
17.92000 599.000
17.96000 617.000
18.00000 613.000
18.04000 574.000
18.08000 608.000
18.12000 582.000
18.16000 612.000
18.20000 624.000
18.24000 610.000
18.28000 650.000
18.32000 603.000
18.36000 617.000
18.40000 605.000
18.44000 643.000
18.48000 642.000
18.52000 591.000
18.56000 649.000
18.60000 621.000
18.64000 657.000
18.68000 650.000
18.72000 671.000
18.76000 720.000
18.80000 631.000
18.84000 677.000
18.88000 669.000
18.92000 684.000
18.96000 675.000
19.00000 691.000
19.04000 639.000
19.08000 671.000
19.12000 652.000
19.16000 644.000
19.20000 665.000
19.24000 626.000
19.28000 611.000
19.32000 674.000
19.36000 675.000
19.40000 679.000
19.44000 683.000
19.48000 664.000
19.52000 665.000
19.56000 665.000
19.60000 701.000
19.64000 687.000
19.68000 687.000
19.72000 724.000
19.76000 659.000
19.80000 689.000
19.84000 663.000
19.88000 662.000
19.92000 632.000
19.96000 700.000
20.00000 724.000
20.04000 678.000
20.08000 713.000
20.12000 727.000
20.16000 767.000
20.20000 742.000
20.24000 734.000
20.28000 748.000
20.32000 757.000
20.36000 696.000
20.40000 767.000
20.44000 749.000
20.48000 766.000
20.52000 825.000
20.56000 851.000
20.60000 921.000
20.64000 947.000
20.68000 986.000
20.72000 961.000
20.76000 976.000
20.80000 905.000
20.84000 887.000
20.88000 856.000
20.92000 808.000
20.96000 753.000
21.00000 741.000
21.04000 800.000
21.08000 719.000
21.12000 727.000
21.16000 751.000
21.20000 762.000
21.24000 778.000
21.28000 748.000
21.32000 730.000
21.36000 771.000
21.40000 785.000
21.44000 760.000
21.48000 782.000
21.52000 779.000
21.56000 799.000
21.60000 795.000
21.64000 770.000
21.68000 746.000
21.72000 840.000
21.76000 767.000
21.80000 760.000
21.84000 820.000
21.88000 782.000
21.92000 791.000
21.96000 788.000
22.00000 841.000
22.04000 800.000
22.08000 792.000
22.12000 795.000
22.16000 764.000
22.20000 807.000
22.24000 832.000
22.28000 866.000
22.32000 775.000
22.36000 863.000
22.40000 838.000
22.44000 819.000
22.48000 874.000
22.52000 990.000
22.56000 909.000
22.60000 973.000
22.64000 933.000
22.68000 960.000
22.72000 925.000
22.76000 967.000
22.80000 858.000
22.84000 859.000
22.88000 819.000
22.92000 848.000
22.96000 818.000
23.00000 900.000
23.04000 827.000
23.08000 799.000
23.12000 828.000
23.16000 852.000
23.20000 874.000
23.24000 867.000
23.28000 912.000
23.32000 903.000
23.36000 845.000
23.40000 853.000
23.44000 821.000
23.48000 847.000
23.52000 850.000
23.56000 880.000
23.60000 910.000
23.64000 799.000
23.68000 916.000
23.72000 845.000
23.76000 875.000
23.80000 856.000
23.84000 937.000
23.88000 828.000
23.92000 909.000
23.96000 854.000
24.00000 856.000
24.04000 830.000
24.08000 874.000
24.12000 932.000
24.16000 880.000
24.20000 835.000
24.24000 891.000
24.28000 854.000
24.32000 864.000
24.36000 889.000
24.40000 855.000
24.44000 870.000
24.48000 919.000
24.52000 853.000
24.56000 844.000
24.60000 920.000
24.64000 909.000
24.68000 862.000
24.72000 878.000
24.76000 851.000
24.80000 878.000
24.84000 866.000
24.88000 838.000
24.92000 820.000
24.96000 864.000
25.00000 863.000
25.04000 858.000
25.08000 820.000
25.12000 891.000
25.16000 872.000
25.20000 816.000
25.24000 898.000
25.28000 864.000
25.32000 947.000
25.36000 829.000
25.40000 884.000
25.44000 862.000
25.48000 933.000
25.52000 898.000
25.56000 859.000
25.60000 876.000
25.64000 863.000
25.68000 859.000
25.72000 821.000
25.76000 805.000
25.80000 870.000
25.84000 870.000
25.88000 933.000
25.92000 872.000
25.96000 938.000
26.00000 868.000
26.04000 910.000
26.08000 924.000
26.12000 874.000
26.16000 972.000
26.20000 908.000
26.24000 993.000
26.28000 1047.000
26.32000 1020.000
26.36000 1064.000
26.40000 1055.000
26.44000 1103.000
26.48000 1197.000
26.52000 1201.000
26.56000 1231.000
26.60000 1214.000
26.64000 1151.000
26.68000 1113.000
26.72000 1028.000
26.76000 978.000
26.80000 1001.000
26.84000 959.000
26.88000 970.000
26.92000 923.000
26.96000 955.000
27.00000 968.000
27.04000 917.000
27.08000 969.000
27.12000 940.000
27.16000 927.000
27.20000 967.000
27.24000 928.000
27.28000 960.000
27.32000 965.000
27.36000 974.000
27.40000 909.000
27.44000 944.000
27.48000 995.000
27.52000 947.000
27.56000 983.000
27.60000 1027.000
27.64000 1057.000
27.68000 995.000
27.72000 1030.000
27.76000 993.000
27.80000 1022.000
27.84000 1043.000
27.88000 1090.000
27.92000 1124.000
27.96000 1189.000
28.00000 1228.000
28.04000 1353.000
28.08000 1470.000
28.12000 1568.000
28.16000 1581.000
28.20000 1582.000
28.24000 1738.000
28.28000 1641.000
28.32000 1671.000
28.36000 1597.000
28.40000 1561.000
28.44000 1606.000
28.48000 1625.000
28.52000 1648.000
28.56000 1699.000
28.60000 1717.000
28.64000 1803.000
28.68000 1928.000
28.72000 2025.000
28.76000 2186.000
28.80000 2531.000
28.84000 2841.000
28.88000 3333.000
28.92000 3987.000
28.96000 4766.000
29.00000 5975.000
29.04000 7767.000
29.08000 10293.000
29.12000 14056.000
29.16000 19650.000
29.20000 28079.000
29.24000 40179.000
29.28000 58478.000
29.32000 83051.000
29.36000 113328.000
29.40000 149224.000
29.44000 172188.300
29.48000 192766.900
29.52000 185347.400
29.56000 170601.800
29.60000 134670.900
29.64000 97177.000
29.68000 66339.000
29.72000 43554.000
29.76000 27668.000
29.80000 17805.000
29.84000 12073.000
29.88000 8511.000
29.92000 6392.000
29.96000 5078.000
30.00000 4422.000
30.04000 4069.000
30.08000 3859.000
30.12000 3564.000
30.16000 3410.000
30.20000 3200.000
30.24000 2993.000
30.28000 2871.000
30.32000 2836.000
30.36000 2696.000
30.40000 2502.000
30.44000 2477.000
30.48000 2376.000
30.52000 2270.000
30.56000 2162.000
30.60000 2109.000
30.64000 1979.000
30.68000 1794.000
30.72000 1792.000
30.76000 1729.000
30.80000 1606.000
30.84000 1547.000
30.88000 1534.000
30.92000 1437.000
30.96000 1414.000
31.00000 1425.000
31.04000 1384.000
31.08000 1376.000
31.12000 1431.000
31.16000 1551.000
31.20000 1817.000
31.24000 2359.000
31.28000 2887.000
31.32000 3034.000
31.36000 2705.000
31.40000 2302.000
31.44000 1826.000
31.48000 1431.000
31.52000 1180.000
31.56000 1035.000
31.60000 957.000
31.64000 951.000
31.68000 873.000
31.72000 883.000
31.76000 867.000
31.80000 870.000
31.84000 848.000
31.88000 828.000
31.92000 849.000
31.96000 820.000
32.00000 747.000
32.04000 766.000
32.08000 815.000
32.12000 769.000
32.16000 744.000
32.20000 755.000
32.24000 722.000
32.28000 814.000
32.32000 790.000
32.36000 767.000
32.40000 754.000
32.44000 727.000
32.48000 768.000
32.52000 687.000
32.56000 684.000
32.60000 681.000
32.64000 750.000
32.68000 710.000
32.72000 774.000
32.76000 772.000
32.80000 888.000
32.84000 921.000
32.88000 974.000
32.92000 1035.000
32.96000 1089.000
33.00000 1113.000
33.04000 1218.000
33.08000 1139.000
33.12000 1103.000
33.16000 1048.000
33.20000 901.000
33.24000 858.000
33.28000 783.000
33.32000 736.000
33.36000 751.000
33.40000 695.000
33.44000 651.000
33.48000 644.000
33.52000 644.000
33.56000 595.000
33.60000 673.000
33.64000 587.000
33.68000 644.000
33.72000 621.000
33.76000 630.000
33.80000 602.000
33.84000 561.000
33.88000 568.000
33.92000 555.000
33.96000 567.000
34.00000 636.000
34.04000 597.000
34.08000 584.000
34.12000 585.000
34.16000 632.000
34.20000 643.000
34.24000 606.000
34.28000 585.000
34.32000 570.000
34.36000 587.000
34.40000 596.000
34.44000 604.000
34.48000 595.000
34.52000 547.000
34.56000 514.000
34.60000 548.000
34.64000 589.000
34.68000 518.000
34.72000 548.000
34.76000 533.000
34.80000 561.000
34.84000 578.000
34.88000 496.000
34.92000 512.000
34.96000 520.000
35.00000 552.000
35.04000 569.000
35.08000 541.000
35.12000 463.000
35.16000 522.000
35.20000 502.000
35.24000 533.000
35.28000 510.000
35.32000 510.000
35.36000 516.000
35.40000 524.000
35.44000 535.000
35.48000 493.000
35.52000 528.000
35.56000 501.000
35.60000 482.000
35.64000 510.000
35.68000 502.000
35.72000 489.000
35.76000 512.000
35.80000 507.000
35.84000 504.000
35.88000 466.000
35.92000 497.000
35.96000 498.000
36.00000 519.000
36.04000 524.000
36.08000 571.000
36.12000 579.000
36.16000 657.000
36.20000 679.000
36.24000 712.000
36.28000 770.000
36.32000 807.000
36.36000 782.000
36.40000 776.000
36.44000 748.000
36.48000 680.000
36.52000 673.000
36.56000 583.000
36.60000 549.000
36.64000 549.000
36.68000 537.000
36.72000 572.000
36.76000 497.000
36.80000 479.000
36.84000 481.000
36.88000 478.000
36.92000 429.000
36.96000 436.000
37.00000 445.000
37.04000 471.000
37.08000 461.000
37.12000 415.000
37.16000 434.000
37.20000 424.000
37.24000 467.000
37.28000 450.000
37.32000 417.000
37.36000 407.000
37.40000 414.000
37.44000 413.000
37.48000 394.000
37.52000 416.000
37.56000 405.000
37.60000 419.000
37.64000 417.000
37.68000 402.000
37.72000 407.000
37.76000 381.000
37.80000 401.000
37.84000 413.000
37.88000 415.000
37.92000 421.000
37.96000 413.000
38.00000 398.000
38.04000 425.000
38.08000 404.000
38.12000 431.000
38.16000 393.000
38.20000 371.000
38.24000 404.000
38.28000 428.000
38.32000 417.000
38.36000 391.000
38.40000 371.000
38.44000 404.000
38.48000 412.000
38.52000 407.000
38.56000 402.000
38.60000 427.000
38.64000 408.000
38.68000 415.000
38.72000 413.000
38.76000 404.000
38.80000 384.000
38.84000 411.000
38.88000 401.000
38.92000 397.000
38.96000 357.000
39.00000 385.000
39.04000 378.000
39.08000 392.000
39.12000 371.000
39.16000 411.000
39.20000 368.000
39.24000 385.000
39.28000 355.000
39.32000 375.000
39.36000 397.000
39.40000 380.000
39.44000 379.000
39.48000 361.000
39.52000 373.000
39.56000 392.000
39.60000 388.000
39.64000 393.000
39.68000 390.000
39.72000 396.000
39.76000 383.000
39.80000 430.000
39.84000 357.000
39.88000 404.000
39.92000 379.000
39.96000 399.000
40.00000 380.000
40.04000 404.000
40.08000 364.000
40.12000 379.000
40.16000 385.000
40.20000 396.000
40.24000 383.000
40.28000 350.000
40.32000 357.000
40.36000 388.000
40.40000 398.000
40.44000 384.000
40.48000 388.000
40.52000 371.000
40.56000 382.000
40.60000 380.000
40.64000 387.000
40.68000 395.000
40.72000 362.000
40.76000 388.000
40.80000 390.000
40.84000 387.000
40.88000 350.000
40.92000 368.000
40.96000 366.000
41.00000 374.000
41.04000 385.000
41.08000 402.000
41.12000 401.000
41.16000 365.000
41.20000 380.000
41.24000 388.000
41.28000 389.000
41.32000 403.000
41.36000 374.000
41.40000 392.000
41.44000 369.000
41.48000 391.000
41.52000 339.000
41.56000 407.000
41.60000 418.000
41.64000 408.000
41.68000 374.000
41.72000 384.000
41.76000 417.000
41.80000 399.000
41.84000 407.000
41.88000 412.000
41.92000 386.000
41.96000 438.000
42.00000 454.000
42.04000 444.000
42.08000 497.000
42.12000 531.000
42.16000 524.000
42.20000 515.000
42.24000 513.000
42.28000 508.000
42.32000 497.000
42.36000 474.000
42.40000 426.000
42.44000 411.000
42.48000 407.000
42.52000 419.000
42.56000 428.000
42.60000 404.000
42.64000 408.000
42.68000 407.000
42.72000 402.000
42.76000 426.000
42.80000 412.000
42.84000 399.000
42.88000 428.000
42.92000 391.000
42.96000 425.000
43.00000 395.000
43.04000 365.000
43.08000 417.000
43.12000 365.000
43.16000 399.000
43.20000 365.000
43.24000 404.000
43.28000 418.000
43.32000 428.000
43.36000 400.000
43.40000 397.000
43.44000 362.000
43.48000 392.000
43.52000 388.000
43.56000 403.000
43.60000 429.000
43.64000 408.000
43.68000 399.000
43.72000 438.000
43.76000 428.000
43.80000 416.000
43.84000 408.000
43.88000 422.000
43.92000 490.000
43.96000 458.000
44.00000 487.000
44.04000 477.000
44.08000 467.000
44.12000 498.000
44.16000 501.000
44.20000 556.000
44.24000 648.000
44.28000 630.000
44.32000 699.000
44.36000 748.000
44.40000 796.000
44.44000 991.000
44.48000 1169.000
44.52000 1450.000
44.56000 1839.000
44.60000 2235.000
44.64000 2731.000
44.68000 3376.000
44.72000 4019.000
44.76000 4883.000
44.80000 5358.000
44.84000 6016.000
44.88000 6199.000
44.92000 6127.000
44.96000 5810.000
45.00000 5082.000
45.04000 4625.000
45.08000 3804.000
45.12000 3202.000
45.16000 2364.000
45.20000 1893.000
45.24000 1493.000
45.28000 1192.000
45.32000 989.000
45.36000 862.000
45.40000 651.000
45.44000 649.000
45.48000 598.000
45.52000 595.000
45.56000 508.000
45.60000 492.000
45.64000 501.000
45.68000 451.000
45.72000 477.000
45.76000 490.000
45.80000 466.000
45.84000 439.000
45.88000 464.000
45.92000 463.000
45.96000 426.000
46.00000 441.000
46.04000 491.000
46.08000 484.000
46.12000 513.000
46.16000 506.000
46.20000 491.000
46.24000 494.000
46.28000 461.000
46.32000 508.000
46.36000 429.000
46.40000 454.000
46.44000 447.000
46.48000 381.000
46.52000 402.000
46.56000 373.000
46.60000 392.000
46.64000 427.000
46.68000 410.000
46.72000 374.000
46.76000 355.000
46.80000 369.000
46.84000 380.000
46.88000 355.000
46.92000 384.000
46.96000 391.000
47.00000 345.000
47.04000 342.000
47.08000 376.000
47.12000 402.000
47.16000 383.000
47.20000 379.000
47.24000 367.000
47.28000 410.000
47.32000 378.000
47.36000 379.000
47.40000 412.000
47.44000 376.000
47.48000 399.000
47.52000 355.000
47.56000 380.000
47.60000 375.000
47.64000 394.000
47.68000 364.000
47.72000 357.000
47.76000 334.000
47.80000 343.000
47.84000 372.000
47.88000 353.000
47.92000 367.000
47.96000 336.000
48.00000 350.000
48.04000 375.000
48.08000 337.000
48.12000 365.000
48.16000 359.000
48.20000 304.000
48.24000 297.000
48.28000 318.000
48.32000 326.000
48.36000 372.000
48.40000 342.000
48.44000 322.000
48.48000 341.000
48.52000 311.000
48.56000 361.000
48.60000 341.000
48.64000 347.000
48.68000 347.000
48.72000 315.000
48.76000 337.000
48.80000 341.000
48.84000 334.000
48.88000 355.000
48.92000 350.000
48.96000 295.000
49.00000 321.000
49.04000 345.000
49.08000 309.000
49.12000 341.000
49.16000 337.000
49.20000 328.000
49.24000 334.000
49.28000 344.000
49.32000 314.000
49.36000 304.000
49.40000 337.000
49.44000 308.000
49.48000 295.000
49.52000 337.000
49.56000 306.000
49.60000 319.000
49.64000 345.000
49.68000 283.000
49.72000 292.000
49.76000 328.000
49.80000 310.000
49.84000 327.000
49.88000 311.000
49.92000 332.000
49.96000 352.000
50.00000 311.000
50.04000 333.000
50.08000 320.000
50.12000 312.000
50.16000 321.000
50.20000 286.000
50.24000 340.000
50.28000 346.000
50.32000 337.000
50.36000 313.000
50.40000 290.000
50.44000 315.000
50.48000 310.000
50.52000 276.000
50.56000 312.000
50.60000 314.000
50.64000 303.000
50.68000 280.000
50.72000 330.000
50.76000 320.000
50.80000 312.000
50.84000 313.000
50.88000 313.000
50.92000 322.000
50.96000 327.000
51.00000 334.000
51.04000 330.000
51.08000 309.000
51.12000 291.000
51.16000 304.000
51.20000 296.000
51.24000 290.000
51.28000 291.000
51.32000 366.000
51.36000 301.000
51.40000 289.000
51.44000 319.000
51.48000 344.000
51.52000 302.000
51.56000 313.000
51.60000 321.000
51.64000 291.000
51.68000 297.000
51.72000 266.000
51.76000 332.000
51.80000 331.000
51.84000 302.000
51.88000 306.000
51.92000 334.000
51.96000 347.000
52.00000 309.000
52.04000 341.000
52.08000 317.000
52.12000 312.000
52.16000 287.000
52.20000 312.000
52.24000 345.000
52.28000 323.000
52.32000 328.000
52.36000 321.000
52.40000 333.000
52.44000 316.000
52.48000 377.000
52.52000 316.000
52.56000 337.000
52.60000 319.000
52.64000 319.000
52.68000 340.000
52.72000 327.000
52.76000 295.000
52.80000 312.000
52.84000 325.000
52.88000 319.000
52.92000 342.000
52.96000 334.000
53.00000 316.000
53.04000 318.000
53.08000 340.000
53.12000 338.000
53.16000 317.000
53.20000 330.000
53.24000 332.000
53.28000 284.000
53.32000 350.000
53.36000 315.000
53.40000 318.000
53.44000 305.000
53.48000 309.000
53.52000 316.000
53.56000 312.000
53.60000 304.000
53.64000 310.000
53.68000 304.000
53.72000 318.000
53.76000 312.000
53.80000 322.000
53.84000 355.000
53.88000 303.000
53.92000 328.000
53.96000 335.000
54.00000 308.000
54.04000 303.000
54.08000 288.000
54.12000 331.000
54.16000 306.000
54.20000 307.000
54.24000 307.000
54.28000 348.000
54.32000 345.000
54.36000 351.000
54.40000 318.000
54.44000 329.000
54.48000 358.000
54.52000 323.000
54.56000 347.000
54.60000 346.000
54.64000 348.000
54.68000 333.000
54.72000 323.000
54.76000 323.000
54.80000 322.000
54.84000 326.000
54.88000 342.000
54.92000 342.000
54.96000 335.000
55.00000 332.000
55.04000 332.000
55.08000 332.000
55.12000 306.000
55.16000 333.000
55.20000 308.000
55.24000 318.000
55.28000 307.000
55.32000 294.000
55.36000 326.000
55.40000 318.000
55.44000 305.000
55.48000 315.000
55.52000 340.000
55.56000 334.000
55.60000 302.000
55.64000 352.000
55.68000 284.000
55.72000 347.000
55.76000 327.000
55.80000 314.000
55.84000 315.000
55.88000 356.000
55.92000 306.000
55.96000 309.000
56.00000 334.000
56.04000 310.000
56.08000 304.000
56.12000 293.000
56.16000 316.000
56.20000 288.000
56.24000 336.000
56.28000 297.000
56.32000 331.000
56.36000 333.000
56.40000 328.000
56.44000 321.000
56.48000 321.000
56.52000 328.000
56.56000 308.000
56.60000 348.000
56.64000 309.000
56.68000 341.000
56.72000 314.000
56.76000 330.000
56.80000 312.000
56.84000 335.000
56.88000 324.000
56.92000 335.000
56.96000 326.000
57.00000 342.000
57.04000 343.000
57.08000 304.000
57.12000 319.000
57.16000 313.000
57.20000 363.000
57.24000 317.000
57.28000 348.000
57.32000 353.000
57.36000 302.000
57.40000 276.000
57.44000 308.000
57.48000 317.000
57.52000 329.000
57.56000 333.000
57.60000 351.000
57.64000 333.000
57.68000 335.000
57.72000 330.000
57.76000 331.000
57.80000 356.000
57.84000 326.000
57.88000 348.000
57.92000 306.000
57.96000 339.000
58.00000 338.000
58.04000 335.000
58.08000 344.000
58.12000 332.000
58.16000 355.000
58.20000 336.000
58.24000 338.000
58.28000 318.000
58.32000 341.000
58.36000 322.000
58.40000 345.000
58.44000 338.000
58.48000 354.000
58.52000 350.000
58.56000 394.000
58.60000 357.000
58.64000 358.000
58.68000 346.000
58.72000 358.000
58.76000 328.000
58.80000 318.000
58.84000 314.000
58.88000 362.000
58.92000 357.000
58.96000 351.000
59.00000 363.000
59.04000 358.000
59.08000 391.000
59.12000 342.000
59.16000 364.000
59.20000 353.000
59.24000 328.000
59.28000 353.000
59.32000 385.000
59.36000 353.000
59.40000 399.000
59.44000 387.000
59.48000 388.000
59.52000 385.000
59.56000 364.000
59.60000 410.000
59.64000 357.000
59.68000 418.000
59.72000 368.000
59.76000 391.000
59.80000 432.000
59.84000 403.000
59.88000 445.000
59.92000 396.000