File: XRD/2.xy
5.00000 591.000
5.04000 575.000
5.08000 575.000
5.12000 627.000
5.16000 586.000
5.20000 619.000
5.24000 602.000
5.28000 552.000
5.32000 573.000
5.36000 593.000
5.40000 549.000
5.44000 561.000
5.48000 549.000
5.52000 545.000
5.56000 528.000
5.60000 548.000
5.64000 557.000
5.68000 554.000
5.72000 545.000
5.76000 539.000
5.80000 542.000
5.84000 513.000
5.88000 492.000
5.92000 513.000
5.96000 487.000
6.00000 531.000
6.04000 531.000
6.08000 521.000
6.12000 464.000
6.16000 524.000
6.20000 482.000
6.24000 454.000
6.28000 494.000
6.32000 457.000
6.36000 500.000
6.40000 482.000
6.44000 478.000
6.48000 460.000
6.52000 472.000
6.56000 449.000
6.60000 465.000
6.64000 460.000
6.68000 502.000
6.72000 473.000
6.76000 463.000
6.80000 449.000
6.84000 416.000
6.88000 468.000
6.92000 427.000
6.96000 434.000
7.00000 423.000
7.04000 459.000
7.08000 427.000
7.12000 420.000
7.16000 411.000
7.20000 460.000
7.24000 406.000
7.28000 389.000
7.32000 417.000
7.36000 404.000
7.40000 423.000
7.44000 383.000
7.48000 380.000
7.52000 403.000
7.56000 431.000
7.60000 369.000
7.64000 440.000
7.68000 390.000
7.72000 389.000
7.76000 397.000
7.80000 365.000
7.84000 401.000
7.88000 410.000
7.92000 360.000
7.96000 360.000
8.00000 359.000
8.04000 341.000
8.08000 366.000
8.12000 344.000
8.16000 361.000
8.20000 356.000
8.24000 338.000
8.28000 323.000
8.32000 372.000
8.36000 345.000
8.40000 347.000
8.44000 355.000
8.48000 343.000
8.52000 351.000
8.56000 389.000
8.60000 347.000
8.64000 369.000
8.68000 324.000
8.72000 322.000
8.76000 307.000
8.80000 334.000
8.84000 323.000
8.88000 322.000
8.92000 315.000
8.96000 324.000
9.00000 344.000
9.04000 332.000
9.08000 328.000
9.12000 339.000
9.16000 348.000
9.20000 349.000
9.24000 321.000
9.28000 282.000
9.32000 314.000
9.36000 375.000
9.40000 349.000
9.44000 315.000
9.48000 311.000
9.52000 319.000
9.56000 306.000
9.60000 302.000
9.64000 284.000
9.68000 301.000
9.72000 312.000
9.76000 302.000
9.80000 325.000
9.84000 310.000
9.88000 307.000
9.92000 317.000
9.96000 306.000
10.00000 279.000
10.04000 317.000
10.08000 290.000
10.12000 276.000
10.16000 275.000
10.20000 289.000
10.24000 324.000
10.28000 291.000
10.32000 294.000
10.36000 309.000
10.40000 267.000
10.44000 289.000
10.48000 272.000
10.52000 284.000
10.56000 298.000
10.60000 304.000
10.64000 287.000
10.68000 305.000
10.72000 300.000
10.76000 311.000
10.80000 302.000
10.84000 310.000
10.88000 287.000
10.92000 288.000
10.96000 299.000
11.00000 321.000
11.04000 338.000
11.08000 341.000
11.12000 332.000
11.16000 414.000
11.20000 428.000
11.24000 501.000
11.28000 553.000
11.32000 668.000
11.36000 862.000
11.40000 993.000
11.44000 1079.000
11.48000 1040.000
11.52000 988.000
11.56000 913.000
11.60000 860.000
11.64000 757.000
11.68000 711.000
11.72000 705.000
11.76000 719.000
11.80000 735.000
11.84000 730.000
11.88000 766.000
11.92000 806.000
11.96000 772.000
12.00000 848.000
12.04000 837.000
12.08000 854.000
12.12000 840.000
12.16000 741.000
12.20000 715.000
12.24000 599.000
12.28000 462.000
12.32000 420.000
12.36000 407.000
12.40000 363.000
12.44000 340.000
12.48000 337.000
12.52000 312.000
12.56000 303.000
12.60000 352.000
12.64000 327.000
12.68000 323.000
12.72000 319.000
12.76000 320.000
12.80000 328.000
12.84000 317.000
12.88000 311.000
12.92000 340.000
12.96000 354.000
13.00000 352.000
13.04000 375.000
13.08000 395.000
13.12000 389.000
13.16000 438.000
13.20000 447.000
13.24000 460.000
13.28000 497.000
13.32000 559.000
13.36000 557.000
13.40000 595.000
13.44000 589.000
13.48000 723.000
13.52000 735.000
13.56000 788.000
13.60000 894.000
13.64000 993.000
13.68000 1055.000
13.72000 1309.000
13.76000 1484.000
13.80000 1731.000
13.84000 1918.000
13.88000 2206.000
13.92000 2446.000
13.96000 2333.000
14.00000 1879.000
14.04000 1431.000
14.08000 1031.000
14.12000 703.000
14.16000 609.000
14.20000 539.000
14.24000 402.000
14.28000 342.000
14.32000 346.000
14.36000 271.000
14.40000 261.000
14.44000 268.000
14.48000 241.000
14.52000 254.000
14.56000 213.000
14.60000 248.000
14.64000 219.000
14.68000 235.000
14.72000 232.000
14.76000 231.000
14.80000 214.000
14.84000 212.000
14.88000 225.000
14.92000 215.000
14.96000 227.000
15.00000 188.000
15.04000 189.000
15.08000 195.000
15.12000 186.000
15.16000 168.000
15.20000 204.000
15.24000 206.000
15.28000 184.000
15.32000 197.000
15.36000 188.000
15.40000 212.000
15.44000 191.000
15.48000 197.000
15.52000 198.000
15.56000 171.000
15.60000 206.000
15.64000 223.000
15.68000 179.000
15.72000 190.000
15.76000 195.000
15.80000 182.000
15.84000 192.000
15.88000 213.000
15.92000 204.000
15.96000 203.000
16.00000 174.000
16.04000 190.000
16.08000 203.000
16.12000 178.000
16.16000 186.000
16.20000 201.000
16.24000 160.000
16.28000 193.000
16.32000 198.000
16.36000 171.000
16.40000 169.000
16.44000 169.000
16.48000 179.000
16.52000 174.000
16.56000 201.000
16.60000 175.000
16.64000 191.000
16.68000 170.000
16.72000 196.000
16.76000 182.000
16.80000 180.000
16.84000 190.000
16.88000 216.000
16.92000 190.000
16.96000 187.000
17.00000 151.000
17.04000 186.000
17.08000 172.000
17.12000 146.000
17.16000 164.000
17.20000 195.000
17.24000 198.000
17.28000 161.000
17.32000 179.000
17.36000 175.000
17.40000 177.000
17.44000 175.000
17.48000 179.000
17.52000 174.000
17.56000 181.000
17.60000 166.000
17.64000 177.000
17.68000 163.000
17.72000 199.000
17.76000 194.000
17.80000 182.000
17.84000 167.000
17.88000 195.000
17.92000 173.000
17.96000 166.000
18.00000 168.000
18.04000 181.000
18.08000 180.000
18.12000 191.000
18.16000 147.000
18.20000 176.000
18.24000 206.000
18.28000 162.000
18.32000 173.000
18.36000 191.000
18.40000 174.000
18.44000 157.000
18.48000 150.000
18.52000 204.000
18.56000 189.000
18.60000 161.000
18.64000 151.000
18.68000 176.000
18.72000 183.000
18.76000 159.000
18.80000 176.000
18.84000 185.000
18.88000 181.000
18.92000 205.000
18.96000 161.000
19.00000 186.000
19.04000 188.000
19.08000 210.000
19.12000 182.000
19.16000 179.000
19.20000 188.000
19.24000 184.000
19.28000 185.000
19.32000 202.000
19.36000 214.000
19.40000 197.000
19.44000 235.000
19.48000 221.000
19.52000 256.000
19.56000 293.000
19.60000 299.000
19.64000 353.000
19.68000 381.000
19.72000 482.000
19.76000 533.000
19.80000 579.000
19.84000 526.000
19.88000 494.000
19.92000 403.000
19.96000 354.000
20.00000 245.000
20.04000 232.000
20.08000 224.000
20.12000 188.000
20.16000 191.000
20.20000 176.000
20.24000 187.000
20.28000 180.000
20.32000 188.000
20.36000 186.000
20.40000 197.000
20.44000 175.000
20.48000 175.000
20.52000 166.000
20.56000 170.000
20.60000 179.000
20.64000 177.000
20.68000 184.000
20.72000 178.000
20.76000 192.000
20.80000 167.000
20.84000 198.000
20.88000 181.000
20.92000 191.000
20.96000 187.000
21.00000 165.000
21.04000 168.000
21.08000 185.000
21.12000 165.000
21.16000 180.000
21.20000 190.000
21.24000 170.000
21.28000 189.000
21.32000 164.000
21.36000 175.000
21.40000 177.000
21.44000 170.000
21.48000 190.000
21.52000 177.000
21.56000 172.000
21.60000 183.000
21.64000 185.000
21.68000 203.000
21.72000 174.000
21.76000 185.000
21.80000 171.000
21.84000 158.000
21.88000 173.000
21.92000 165.000
21.96000 167.000
22.00000 177.000
22.04000 166.000
22.08000 195.000
22.12000 174.000
22.16000 191.000
22.20000 195.000
22.24000 170.000
22.28000 186.000
22.32000 193.000
22.36000 188.000
22.40000 182.000
22.44000 162.000
22.48000 187.000
22.52000 189.000
22.56000 202.000
22.60000 172.000
22.64000 185.000
22.68000 170.000
22.72000 181.000
22.76000 188.000
22.80000 190.000
22.84000 191.000
22.88000 186.000
22.92000 184.000
22.96000 163.000
23.00000 186.000
23.04000 167.000
23.08000 178.000
23.12000 196.000
23.16000 186.000
23.20000 194.000
23.24000 193.000
23.28000 207.000
23.32000 216.000
23.36000 189.000
23.40000 197.000
23.44000 161.000
23.48000 200.000
23.52000 167.000
23.56000 180.000
23.60000 218.000
23.64000 192.000
23.68000 219.000
23.72000 203.000
23.76000 228.000
23.80000 210.000
23.84000 251.000
23.88000 291.000
23.92000 285.000
23.96000 315.000
24.00000 346.000
24.04000 396.000
24.08000 477.000
24.12000 538.000
24.16000 631.000
24.20000 770.000
24.24000 850.000
24.28000 967.000
24.32000 1009.000
24.36000 891.000
24.40000 726.000
24.44000 613.000
24.48000 520.000
24.52000 393.000
24.56000 352.000
24.60000 315.000
24.64000 244.000
24.68000 256.000
24.72000 228.000
24.76000 232.000
24.80000 197.000
24.84000 204.000
24.88000 205.000
24.92000 206.000
24.96000 202.000
25.00000 181.000
25.04000 200.000
25.08000 175.000
25.12000 184.000
25.16000 188.000
25.20000 216.000
25.24000 169.000
25.28000 175.000
25.32000 191.000
25.36000 185.000
25.40000 177.000
25.44000 171.000
25.48000 185.000
25.52000 187.000
25.56000 201.000
25.60000 188.000
25.64000 238.000
25.68000 213.000
25.72000 198.000
25.76000 222.000
25.80000 231.000
25.84000 256.000
25.88000 225.000
25.92000 291.000
25.96000 272.000
26.00000 276.000
26.04000 271.000
26.08000 245.000
26.12000 246.000
26.16000 220.000
26.20000 191.000
26.24000 186.000
26.28000 185.000
26.32000 181.000
26.36000 186.000
26.40000 195.000
26.44000 161.000
26.48000 174.000
26.52000 188.000
26.56000 171.000
26.60000 165.000
26.64000 217.000
26.68000 188.000
26.72000 179.000
26.76000 167.000
26.80000 174.000
26.84000 189.000
26.88000 187.000
26.92000 185.000
26.96000 195.000
27.00000 206.000
27.04000 209.000
27.08000 200.000
27.12000 191.000
27.16000 175.000
27.20000 200.000
27.24000 211.000
27.28000 204.000
27.32000 205.000
27.36000 222.000
27.40000 211.000
27.44000 184.000
27.48000 203.000
27.52000 257.000
27.56000 216.000
27.60000 256.000
27.64000 286.000
27.68000 274.000
27.72000 307.000
27.76000 349.000
27.80000 403.000
27.84000 479.000
27.88000 532.000
27.92000 662.000
27.96000 799.000
28.00000 945.000
28.04000 1146.000
28.08000 1327.000
28.12000 1403.000
28.16000 1423.000
28.20000 1173.000
28.24000 954.000
28.28000 729.000
28.32000 552.000
28.36000 449.000
28.40000 357.000
28.44000 318.000
28.48000 287.000
28.52000 269.000
28.56000 235.000
28.60000 223.000
28.64000 204.000
28.68000 208.000
28.72000 212.000
28.76000 179.000
28.80000 167.000
28.84000 173.000
28.88000 189.000
28.92000 165.000
28.96000 148.000
29.00000 162.000
29.04000 142.000
29.08000 163.000
29.12000 153.000
29.16000 155.000
29.20000 144.000
29.24000 136.000
29.28000 157.000
29.32000 150.000
29.36000 132.000
29.40000 170.000
29.44000 133.000
29.48000 135.000
29.52000 158.000
29.56000 153.000
29.60000 147.000
29.64000 131.000
29.68000 153.000
29.72000 136.000
29.76000 159.000
29.80000 132.000
29.84000 152.000
29.88000 161.000
29.92000 154.000
29.96000 148.000
30.00000 140.000
30.04000 172.000
30.08000 153.000
30.12000 146.000
30.16000 163.000
30.20000 169.000
30.24000 158.000
30.28000 179.000
30.32000 159.000
30.36000 172.000
30.40000 178.000
30.44000 178.000
30.48000 197.000
30.52000 197.000
30.56000 206.000
30.60000 206.000
30.64000 225.000
30.68000 241.000
30.72000 227.000
30.76000 249.000
30.80000 286.000
30.84000 324.000
30.88000 351.000
30.92000 353.000
30.96000 312.000
31.00000 379.000
31.04000 338.000
31.08000 333.000
31.12000 327.000
31.16000 367.000
31.20000 423.000
31.24000 439.000
31.28000 491.000
31.32000 670.000
31.36000 783.000
31.40000 982.000
31.44000 1251.000
31.48000 1532.000
31.52000 1517.000
31.56000 1747.000
31.60000 1483.000
31.64000 1353.000
31.68000 1039.000
31.72000 904.000
31.76000 658.000
31.80000 529.000
31.84000 413.000
31.88000 336.000
31.92000 270.000
31.96000 240.000
32.00000 212.000
32.04000 180.000
32.08000 158.000
32.12000 152.000
32.16000 156.000
32.20000 159.000
32.24000 137.000
32.28000 120.000
32.32000 131.000
32.36000 143.000
32.40000 140.000
32.44000 139.000
32.48000 120.000
32.52000 123.000
32.56000 119.000
32.60000 128.000
32.64000 122.000
32.68000 131.000
32.72000 135.000
32.76000 102.000
32.80000 125.000
32.84000 124.000
32.88000 116.000
32.92000 131.000
32.96000 109.000
33.00000 128.000
33.04000 130.000
33.08000 132.000
33.12000 94.000
33.16000 108.000
33.20000 88.000
33.24000 126.000
33.28000 108.000
33.32000 111.000
33.36000 105.000
33.40000 113.000
33.44000 113.000
33.48000 95.000
33.52000 81.000
33.56000 89.000
33.60000 103.000
33.64000 99.000
33.68000 90.000
33.72000 96.000
33.76000 96.000
33.80000 96.000
33.84000 102.000
33.88000 109.000
33.92000 114.000
33.96000 80.000
34.00000 113.000
34.04000 110.000
34.08000 113.000
34.12000 88.000
34.16000 100.000
34.20000 117.000
34.24000 108.000
34.28000 104.000
34.32000 120.000
34.36000 112.000
34.40000 114.000
34.44000 134.000
34.48000 150.000
34.52000 156.000
34.56000 186.000
34.60000 227.000
34.64000 234.000
34.68000 273.000
34.72000 261.000
34.76000 223.000
34.80000 203.000
34.84000 186.000
34.88000 155.000
34.92000 128.000
34.96000 140.000
35.00000 116.000
35.04000 119.000
35.08000 123.000
35.12000 97.000
35.16000 103.000
35.20000 107.000
35.24000 115.000
35.28000 113.000
35.32000 93.000
35.36000 90.000
35.40000 91.000
35.44000 96.000
35.48000 99.000
35.52000 90.000
35.56000 87.000
35.60000 94.000
35.64000 89.000
35.68000 122.000
35.72000 96.000
35.76000 92.000
35.80000 98.000
35.84000 93.000
35.88000 90.000
35.92000 100.000
35.96000 98.000
36.00000 86.000
36.04000 88.000
36.08000 86.000
36.12000 93.000
36.16000 92.000
36.20000 109.000
36.24000 87.000
36.28000 105.000
36.32000 96.000
36.36000 97.000
36.40000 103.000
36.44000 93.000
36.48000 90.000
36.52000 92.000
36.56000 90.000
36.60000 91.000
36.64000 101.000
36.68000 98.000
36.72000 98.000
36.76000 90.000
36.80000 120.000
36.84000 96.000
36.88000 92.000
36.92000 80.000
36.96000 102.000
37.00000 86.000
37.04000 91.000
37.08000 107.000
37.12000 87.000
37.16000 90.000
37.20000 106.000
37.24000 73.000
37.28000 91.000
37.32000 89.000
37.36000 109.000
37.40000 91.000
37.44000 87.000
37.48000 79.000
37.52000 94.000
37.56000 80.000
37.60000 80.000
37.64000 102.000
37.68000 87.000
37.72000 79.000
37.76000 79.000
37.80000 109.000
37.84000 107.000
37.88000 102.000
37.92000 88.000
37.96000 94.000
38.00000 93.000
38.04000 97.000
38.08000 101.000
38.12000 84.000
38.16000 98.000
38.20000 74.000
38.24000 109.000
38.28000 71.000
38.32000 110.000
38.36000 89.000
38.40000 98.000
38.44000 101.000
38.48000 124.000
38.52000 114.000
38.56000 101.000
38.60000 117.000
38.64000 115.000
38.68000 99.000
38.72000 92.000
38.76000 116.000
38.80000 127.000
38.84000 93.000
38.88000 103.000
38.92000 96.000
38.96000 113.000
39.00000 84.000
39.04000 106.000
39.08000 93.000
39.12000 84.000
39.16000 89.000
39.20000 100.000
39.24000 100.000
39.28000 101.000
39.32000 117.000
39.36000 99.000
39.40000 95.000
39.44000 106.000
39.48000 87.000
39.52000 130.000
39.56000 126.000
39.60000 107.000
39.64000 123.000
39.68000 116.000
39.72000 93.000
39.76000 142.000
39.80000 136.000
39.84000 110.000
39.88000 165.000
39.92000 160.000
39.96000 176.000
40.00000 213.000
40.04000 265.000
40.08000 326.000
40.12000 456.000
40.16000 593.000
40.20000 725.000
40.24000 823.000
40.28000 864.000
40.32000 799.000
40.36000 662.000
40.40000 622.000
40.44000 519.000
40.48000 436.000
40.52000 389.000
40.56000 335.000
40.60000 299.000
40.64000 242.000
40.68000 219.000
40.72000 212.000
40.76000 171.000
40.80000 143.000
40.84000 144.000
40.88000 127.000
40.92000 137.000
40.96000 126.000
41.00000 126.000
41.04000 127.000
41.08000 110.000
41.12000 126.000
41.16000 126.000
41.20000 124.000
41.24000 120.000
41.28000 106.000
41.32000 129.000
41.36000 114.000
41.40000 115.000
41.44000 97.000
41.48000 119.000
41.52000 115.000
41.56000 110.000
41.60000 115.000
41.64000 139.000
41.68000 116.000
41.72000 118.000
41.76000 120.000
41.80000 104.000
41.84000 127.000
41.88000 115.000
41.92000 133.000
41.96000 120.000
42.00000 113.000
42.04000 138.000
42.08000 132.000
42.12000 145.000
42.16000 155.000
42.20000 145.000
42.24000 161.000
42.28000 184.000
42.32000 195.000
42.36000 179.000
42.40000 237.000
42.44000 263.000
42.48000 277.000
42.52000 346.000
42.56000 398.000
42.60000 463.000
42.64000 591.000
42.68000 735.000
42.72000 898.000
42.76000 1024.000
42.80000 1033.000
42.84000 1076.000
42.88000 946.000
42.92000 817.000
42.96000 702.000
43.00000 536.000
43.04000 492.000
43.08000 384.000
43.12000 315.000
43.16000 332.000
43.20000 247.000
43.24000 222.000
43.28000 186.000
43.32000 180.000
43.36000 152.000
43.40000 144.000
43.44000 129.000
43.48000 124.000
43.52000 131.000
43.56000 140.000
43.60000 99.000
43.64000 125.000
43.68000 108.000
43.72000 106.000
43.76000 103.000
43.80000 116.000
43.84000 120.000
43.88000 105.000
43.92000 113.000
43.96000 112.000
44.00000 116.000
44.04000 90.000
44.08000 131.000
44.12000 99.000
44.16000 89.000
44.20000 95.000
44.24000 109.000
44.28000 97.000
44.32000 84.000
44.36000 97.000
44.40000 101.000
44.44000 84.000
44.48000 107.000
44.52000 95.000
44.56000 81.000
44.60000 96.000
44.64000 73.000
44.68000 115.000
44.72000 77.000
44.76000 92.000
44.80000 91.000
44.84000 102.000
44.88000 101.000
44.92000 92.000
44.96000 79.000
45.00000 93.000
45.04000 95.000
45.08000 123.000
45.12000 129.000
45.16000 101.000
45.20000 111.000
45.24000 106.000
45.28000 123.000
45.32000 112.000
45.36000 115.000
45.40000 93.000
45.44000 98.000
45.48000 107.000
45.52000 84.000
45.56000 82.000
45.60000 89.000
45.64000 95.000
45.68000 78.000
45.72000 88.000
45.76000 86.000
45.80000 81.000
45.84000 78.000
45.88000 87.000
45.92000 73.000
45.96000 69.000
46.00000 85.000
46.04000 83.000
46.08000 69.000
46.12000 85.000
46.16000 78.000
46.20000 78.000
46.24000 77.000
46.28000 71.000
46.32000 89.000
46.36000 76.000
46.40000 78.000
46.44000 84.000
46.48000 90.000
46.52000 71.000
46.56000 82.000
46.60000 90.000
46.64000 73.000
46.68000 101.000
46.72000 93.000
46.76000 83.000
46.80000 82.000
46.84000 84.000
46.88000 78.000
46.92000 77.000
46.96000 81.000
47.00000 79.000
47.04000 78.000
47.08000 74.000
47.12000 82.000
47.16000 84.000
47.20000 85.000
47.24000 79.000
47.28000 70.000
47.32000 74.000
47.36000 82.000
47.40000 93.000
47.44000 84.000
47.48000 83.000
47.52000 100.000
47.56000 93.000
47.60000 123.000
47.64000 99.000
47.68000 102.000
47.72000 90.000
47.76000 97.000
47.80000 92.000
47.84000 95.000
47.88000 71.000
47.92000 70.000
47.96000 80.000
48.00000 78.000
48.04000 93.000
48.08000 78.000
48.12000 84.000
48.16000 92.000
48.20000 69.000
48.24000 75.000
48.28000 85.000
48.32000 69.000
48.36000 84.000
48.40000 72.000
48.44000 104.000
48.48000 76.000
48.52000 87.000
48.56000 80.000
48.60000 79.000
48.64000 81.000
48.68000 69.000
48.72000 70.000
48.76000 90.000
48.80000 79.000
48.84000 74.000
48.88000 80.000
48.92000 92.000
48.96000 97.000
49.00000 78.000
49.04000 80.000
49.08000 64.000
49.12000 87.000
49.16000 61.000
49.20000 75.000
49.24000 92.000
49.28000 82.000
49.32000 100.000
49.36000 96.000
49.40000 98.000
49.44000 95.000
49.48000 108.000
49.52000 109.000
49.56000 112.000
49.60000 147.000
49.64000 181.000
49.68000 214.000
49.72000 261.000
49.76000 312.000
49.80000 329.000
49.84000 344.000
49.88000 363.000
49.92000 324.000
49.96000 329.000
50.00000 286.000
50.04000 251.000
50.08000 211.000
50.12000 194.000
50.16000 157.000
50.20000 145.000
50.24000 120.000
50.28000 124.000
50.32000 121.000
50.36000 119.000
50.40000 104.000
50.44000 96.000
50.48000 96.000
50.52000 72.000
50.56000 87.000
50.60000 81.000
50.64000 65.000
50.68000 110.000
50.72000 98.000
50.76000 80.000
50.80000 87.000
50.84000 83.000
50.88000 89.000
50.92000 77.000
50.96000 67.000
51.00000 77.000
51.04000 98.000
51.08000 73.000
51.12000 66.000
51.16000 81.000
51.20000 78.000
51.24000 91.000
51.28000 80.000
51.32000 105.000
51.36000 88.000
51.40000 100.000
51.44000 103.000
51.48000 89.000
51.52000 112.000
51.56000 109.000
51.60000 132.000
51.64000 89.000
51.68000 112.000
51.72000 136.000
51.76000 105.000
51.80000 163.000
51.84000 154.000
51.88000 198.000
51.92000 235.000
51.96000 265.000
52.00000 285.000
52.04000 289.000
52.08000 291.000
52.12000 238.000
52.16000 225.000
52.20000 209.000
52.24000 167.000
52.28000 164.000
52.32000 158.000
52.36000 140.000
52.40000 117.000
52.44000 130.000
52.48000 96.000
52.52000 108.000
52.56000 97.000
52.60000 100.000
52.64000 85.000
52.68000 88.000
52.72000 74.000
52.76000 73.000
52.80000 71.000
52.84000 83.000
52.88000 70.000
52.92000 63.000
52.96000 67.000
53.00000 68.000
53.04000 61.000
53.08000 61.000
53.12000 66.000
53.16000 61.000
53.20000 63.000
53.24000 67.000
53.28000 65.000
53.32000 61.000
53.36000 55.000
53.40000 55.000
53.44000 75.000
53.48000 52.000
53.52000 64.000
53.56000 75.000
53.60000 59.000
53.64000 56.000
53.68000 70.000
53.72000 61.000
53.76000 59.000
53.80000 72.000
53.84000 82.000
53.88000 55.000
53.92000 69.000
53.96000 88.000
54.00000 89.000
54.04000 95.000
54.08000 93.000
54.12000 85.000
54.16000 78.000
54.20000 96.000
54.24000 89.000
54.28000 88.000
54.32000 73.000
54.36000 76.000
54.40000 77.000
54.44000 77.000
54.48000 71.000
54.52000 74.000
54.56000 68.000
54.60000 67.000
54.64000 55.000
54.68000 62.000
54.72000 52.000
54.76000 63.000
54.80000 59.000
54.84000 66.000
54.88000 63.000
54.92000 64.000
54.96000 52.000
55.00000 55.000
55.04000 51.000
55.08000 58.000
55.12000 67.000
55.16000 63.000
55.20000 49.000
55.24000 65.000
55.28000 75.000
55.32000 55.000
55.36000 68.000
55.40000 68.000
55.44000 60.000
55.48000 57.000
55.52000 57.000
55.56000 64.000
55.60000 61.000
55.64000 61.000
55.68000 53.000
55.72000 61.000
55.76000 63.000
55.80000 65.000
55.84000 59.000
55.88000 70.000
55.92000 47.000
55.96000 56.000
56.00000 57.000
56.04000 56.000
56.08000 63.000
56.12000 54.000
56.16000 66.000
56.20000 52.000
56.24000 59.000
56.28000 55.000
56.32000 74.000
56.36000 70.000
56.40000 62.000
56.44000 62.000
56.48000 62.000
56.52000 55.000
56.56000 70.000
56.60000 61.000
56.64000 53.000
56.68000 64.000
56.72000 51.000
56.76000 66.000
56.80000 56.000
56.84000 66.000
56.88000 54.000
56.92000 59.000
56.96000 55.000
57.00000 79.000
57.04000 75.000
57.08000 59.000
57.12000 62.000
57.16000 68.000
57.20000 64.000
57.24000 73.000
57.28000 57.000
57.32000 66.000
57.36000 68.000
57.40000 78.000
57.44000 64.000
57.48000 69.000
57.52000 63.000
57.56000 75.000
57.60000 66.000
57.64000 57.000
57.68000 84.000
57.72000 59.000
57.76000 78.000
57.80000 71.000
57.84000 73.000
57.88000 85.000
57.92000 85.000
57.96000 91.000
58.00000 85.000
58.04000 86.000
58.08000 95.000
58.12000 98.000
58.16000 133.000
58.20000 116.000
58.24000 108.000
58.28000 132.000
58.32000 95.000
58.36000 81.000
58.40000 86.000
58.44000 78.000
58.48000 68.000
58.52000 72.000
58.56000 89.000
58.60000 72.000
58.64000 88.000
58.68000 83.000
58.72000 67.000
58.76000 67.000
58.80000 72.000
58.84000 52.000
58.88000 71.000
58.92000 79.000
58.96000 71.000
59.00000 83.000
59.04000 66.000
59.08000 81.000
59.12000 78.000
59.16000 60.000
59.20000 53.000
59.24000 66.000
59.28000 63.000
59.32000 81.000
59.36000 67.000
59.40000 65.000
59.44000 64.000
59.48000 71.000
59.52000 81.000
59.56000 78.000
59.60000 63.000
59.64000 68.000
59.68000 67.000
59.72000 85.000
59.76000 76.000
59.80000 80.000
59.84000 92.000
59.88000 98.000
59.92000 109.000