File: XRD/22.xy
5.00000 1510.000
5.08000 1401.000
5.16000 1433.000
5.24000 1442.000
5.32000 1420.000
5.40000 1432.000
5.48000 1372.000
5.56000 1306.000
5.64000 1350.000
5.72000 1286.000
5.80000 1264.000
5.88000 1221.000
5.96000 1280.000
6.04000 1217.000
6.12000 1193.000
6.20000 1150.000
6.28000 1198.000
6.36000 1154.000
6.44000 1198.000
6.52000 1123.000
6.60000 1100.000
6.68000 1126.000
6.76000 1149.000
6.84000 1022.000
6.92000 1042.000
7.00000 1021.000
7.08000 1009.000
7.16000 1012.000
7.24000 1025.000
7.32000 969.000
7.40000 1014.000
7.48000 929.000
7.56000 980.000
7.64000 855.000
7.72000 914.000
7.80000 910.000
7.88000 917.000
7.96000 922.000
8.04000 862.000
8.12000 850.000
8.20000 844.000
8.28000 813.000
8.36000 857.000
8.44000 889.000
8.52000 806.000
8.60000 867.000
8.68000 852.000
8.76000 775.000
8.84000 822.000
8.92000 758.000
9.00000 753.000
9.08000 783.000
9.16000 758.000
9.24000 717.000
9.32000 711.000
9.40000 728.000
9.48000 713.000
9.56000 765.000
9.64000 730.000
9.72000 733.000
9.80000 716.000
9.88000 703.000
9.96000 643.000
10.04000 730.000
10.12000 676.000
10.20000 705.000
10.28000 640.000
10.36000 680.000
10.44000 706.000
10.52000 660.000
10.60000 610.000
10.68000 638.000
10.76000 642.000
10.84000 664.000
10.92000 606.000
11.00000 609.000
11.08000 638.000
11.16000 615.000
11.24000 647.000
11.32000 596.000
11.40000 577.000
11.48000 576.000
11.56000 624.000
11.64000 633.000
11.72000 589.000
11.80000 621.000
11.88000 615.000
11.96000 571.000
12.04000 645.000
12.12000 545.000
12.20000 635.000
12.28000 599.000
12.36000 592.000
12.44000 594.000
12.52000 570.000
12.60000 601.000
12.68000 611.000
12.76000 644.000
12.84000 685.000
12.92000 694.000
13.00000 673.000
13.08000 632.000
13.16000 619.000
13.24000 611.000
13.32000 605.000
13.40000 614.000
13.48000 618.000
13.56000 678.000
13.64000 756.000
13.72000 897.000
13.80000 911.000
13.88000 1105.000
13.96000 1500.000
14.04000 2647.000
14.12000 5795.000
14.20000 15771.000
14.28000 42665.000
14.36000 40630.000
14.44000 11161.000
14.52000 3861.000
14.60000 1825.000
14.68000 1385.000
14.76000 1419.000
14.84000 1614.000
14.92000 1323.000
15.00000 1008.000
15.08000 817.000
15.16000 703.000
15.24000 649.000
15.32000 619.000
15.40000 509.000
15.48000 528.000
15.56000 487.000
15.64000 518.000
15.72000 529.000
15.80000 517.000
15.88000 482.000
15.96000 451.000
16.04000 447.000
16.12000 453.000
16.20000 514.000
16.28000 451.000
16.36000 467.000
16.44000 477.000
16.52000 448.000
16.60000 439.000
16.68000 431.000
16.76000 424.000
16.84000 468.000
16.92000 439.000
17.00000 480.000
17.08000 461.000
17.16000 429.000
17.24000 447.000
17.32000 454.000
17.40000 421.000
17.48000 438.000
17.56000 444.000
17.64000 451.000
17.72000 423.000
17.80000 481.000
17.88000 427.000
17.96000 450.000
18.04000 413.000
18.12000 467.000
18.20000 443.000
18.28000 443.000
18.36000 412.000
18.44000 415.000
18.52000 419.000
18.60000 459.000
18.68000 410.000
18.76000 470.000
18.84000 420.000
18.92000 418.000
19.00000 447.000
19.08000 417.000
19.16000 443.000
19.24000 446.000
19.32000 421.000
19.40000 383.000
19.48000 425.000
19.56000 410.000
19.64000 424.000
19.72000 450.000
19.80000 427.000
19.88000 441.000
19.96000 466.000
20.04000 444.000
20.12000 452.000
20.20000 476.000
20.28000 431.000
20.36000 412.000
20.44000 455.000
20.52000 432.000
20.60000 485.000
20.68000 466.000
20.76000 437.000
20.84000 425.000
20.92000 460.000
21.00000 469.000
21.08000 496.000
21.16000 479.000
21.24000 489.000
21.32000 443.000
21.40000 451.000
21.48000 471.000
21.56000 477.000
21.64000 472.000
21.72000 479.000
21.80000 462.000
21.88000 471.000
21.96000 471.000
22.04000 510.000
22.12000 497.000
22.20000 495.000
22.28000 491.000
22.36000 466.000
22.44000 451.000
22.52000 470.000
22.60000 475.000
22.68000 465.000
22.76000 476.000
22.84000 464.000
22.92000 464.000
23.00000 452.000
23.08000 501.000
23.16000 458.000
23.24000 512.000
23.32000 495.000
23.40000 496.000
23.48000 537.000
23.56000 487.000
23.64000 477.000
23.72000 505.000
23.80000 458.000
23.88000 474.000
23.96000 459.000
24.04000 520.000
24.12000 489.000
24.20000 458.000
24.28000 520.000
24.36000 516.000
24.44000 481.000
24.52000 485.000
24.60000 559.000
24.68000 648.000
24.76000 863.000
24.84000 972.000
24.92000 724.000
25.00000 526.000
25.08000 505.000
25.16000 525.000
25.24000 491.000
25.32000 454.000
25.40000 464.000
25.48000 494.000
25.56000 480.000
25.64000 471.000
25.72000 469.000
25.80000 522.000
25.88000 516.000
25.96000 494.000
26.04000 484.000
26.12000 480.000
26.20000 462.000
26.28000 470.000
26.36000 474.000
26.44000 472.000
26.52000 446.000
26.60000 480.000
26.68000 449.000
26.76000 452.000
26.84000 495.000
26.92000 487.000
27.00000 430.000
27.08000 472.000
27.16000 482.000
27.24000 481.000
27.32000 481.000
27.40000 488.000
27.48000 459.000
27.56000 464.000
27.64000 463.000
27.72000 484.000
27.80000 473.000
27.88000 484.000
27.96000 472.000
28.04000 470.000
28.12000 486.000
28.20000 494.000
28.28000 529.000
28.36000 576.000
28.44000 701.000
28.52000 996.000
28.60000 1993.000
28.68000 4350.000
28.76000 4488.000
28.84000 2261.000
28.92000 993.000
29.00000 579.000
29.08000 512.000
29.16000 519.000
29.24000 500.000
29.32000 462.000
29.40000 507.000
29.48000 470.000
29.56000 505.000
29.64000 537.000
29.72000 515.000
29.80000 610.000
29.88000 592.000
29.96000 541.000
30.04000 493.000
30.12000 502.000
30.20000 429.000
30.28000 421.000
30.36000 453.000
30.44000 441.000
30.52000 422.000
30.60000 428.000
30.68000 432.000
30.76000 381.000
30.84000 395.000
30.92000 388.000
31.00000 402.000
31.08000 368.000
31.16000 385.000
31.24000 361.000
31.32000 366.000
31.40000 414.000
31.48000 383.000
31.56000 372.000
31.64000 356.000
31.72000 352.000
31.80000 382.000
31.88000 398.000
31.96000 463.000
32.04000 597.000
32.12000 930.000
32.20000 1183.000
32.28000 785.000
32.36000 507.000
32.44000 384.000
32.52000 361.000
32.60000 351.000
32.68000 334.000
32.76000 345.000
32.84000 330.000
32.92000 312.000
33.00000 378.000
33.08000 341.000
33.16000 328.000
33.24000 333.000
33.32000 329.000
33.40000 347.000
33.48000 346.000
33.56000 328.000
33.64000 306.000
33.72000 311.000
33.80000 338.000
33.88000 297.000
33.96000 322.000
34.04000 327.000
34.12000 307.000
34.20000 306.000
34.28000 304.000
34.36000 303.000
34.44000 294.000
34.52000 283.000
34.60000 322.000
34.68000 290.000
34.76000 308.000
34.84000 314.000
34.92000 259.000
35.00000 273.000
35.08000 319.000
35.16000 291.000
35.24000 288.000
35.32000 286.000
35.40000 294.000
35.48000 307.000
35.56000 283.000
35.64000 269.000
35.72000 243.000
35.80000 280.000
35.88000 281.000
35.96000 301.000
36.04000 297.000
36.12000 286.000
36.20000 272.000
36.28000 270.000
36.36000 268.000
36.44000 268.000
36.52000 285.000
36.60000 253.000
36.68000 263.000
36.76000 275.000
36.84000 288.000
36.92000 264.000
37.00000 255.000
37.08000 259.000
37.16000 291.000
37.24000 248.000
37.32000 258.000
37.40000 281.000
37.48000 293.000
37.56000 300.000
37.64000 265.000
37.72000 269.000
37.80000 248.000
37.88000 254.000
37.96000 232.000
38.04000 268.000
38.12000 237.000
38.20000 275.000
38.28000 251.000
38.36000 249.000
38.44000 252.000
38.52000 239.000
38.60000 221.000
38.68000 240.000
38.76000 271.000
38.84000 240.000
38.92000 258.000
39.00000 296.000
39.08000 290.000
39.16000 251.000
39.24000 233.000
39.32000 254.000
39.40000 266.000
39.48000 200.000
39.56000 227.000
39.64000 243.000
39.72000 194.000
39.80000 216.000
39.88000 201.000
39.96000 236.000
40.04000 222.000
40.12000 209.000
40.20000 228.000
40.28000 204.000
40.36000 225.000
40.44000 201.000
40.52000 218.000
40.60000 243.000
40.68000 192.000
40.76000 252.000
40.84000 263.000
40.92000 357.000
41.00000 492.000
41.08000 408.000
41.16000 285.000
41.24000 215.000
41.32000 239.000
41.40000 220.000
41.48000 201.000
41.56000 207.000
41.64000 209.000
41.72000 201.000
41.80000 200.000
41.88000 200.000
41.96000 210.000
42.04000 209.000
42.12000 228.000
42.20000 200.000
42.28000 200.000
42.36000 200.000
42.44000 206.000
42.52000 205.000
42.60000 210.000
42.68000 214.000
42.76000 195.000
42.84000 226.000
42.92000 190.000
43.00000 217.000
43.08000 202.000
43.16000 211.000
43.24000 214.000
43.32000 177.000
43.40000 228.000
43.48000 273.000
43.56000 407.000
43.64000 387.000
43.72000 290.000
43.80000 232.000
43.88000 220.000
43.96000 188.000
44.04000 184.000
44.12000 215.000
44.20000 180.000
44.28000 215.000
44.36000 197.000
44.44000 209.000
44.52000 200.000
44.60000 227.000
44.68000 206.000
44.76000 202.000
44.84000 201.000
44.92000 191.000
45.00000 205.000
45.08000 203.000
45.16000 217.000
45.24000 206.000
45.32000 195.000
45.40000 188.000
45.48000 200.000
45.56000 205.000
45.64000 211.000
45.72000 206.000
45.80000 182.000
45.88000 192.000
45.96000 204.000
46.04000 187.000
46.12000 202.000
46.20000 200.000
46.28000 230.000
46.36000 210.000
46.44000 192.000
46.52000 202.000
46.60000 180.000
46.68000 215.000
46.76000 188.000
46.84000 214.000
46.92000 205.000
47.00000 196.000
47.08000 224.000
47.16000 207.000
47.24000 206.000
47.32000 199.000
47.40000 214.000
47.48000 181.000
47.56000 198.000
47.64000 177.000
47.72000 191.000
47.80000 198.000
47.88000 212.000
47.96000 189.000
48.04000 190.000
48.12000 222.000
48.20000 190.000
48.28000 331.000
48.36000 499.000
48.44000 1089.000
48.52000 925.000
48.60000 778.000
48.68000 407.000
48.76000 274.000
48.84000 216.000
48.92000 209.000
49.00000 188.000
49.08000 196.000
49.16000 177.000
49.24000 188.000
49.32000 209.000
49.40000 162.000
49.48000 168.000
49.56000 194.000
49.64000 179.000
49.72000 152.000
49.80000 158.000
49.88000 177.000
49.96000 160.000
50.04000 193.000
50.12000 189.000
50.20000 183.000
50.28000 202.000
50.36000 207.000
50.44000 217.000
50.52000 230.000
50.60000 233.000
50.68000 234.000
50.76000 244.000
50.84000 214.000
50.92000 209.000
51.00000 182.000
51.08000 181.000
51.16000 195.000
51.24000 148.000
51.32000 126.000
51.40000 172.000
51.48000 174.000
51.56000 157.000
51.64000 153.000
51.72000 173.000
51.80000 153.000
51.88000 157.000
51.96000 162.000
52.04000 148.000
52.12000 161.000
52.20000 172.000
52.28000 171.000
52.36000 153.000
52.44000 174.000
52.52000 154.000
52.60000 154.000
52.68000 170.000
52.76000 145.000
52.84000 166.000
52.92000 240.000
53.00000 229.000
53.08000 216.000
53.16000 172.000
53.24000 177.000
53.32000 154.000
53.40000 160.000
53.48000 160.000
53.56000 147.000
53.64000 147.000
53.72000 141.000
53.80000 153.000
53.88000 167.000
53.96000 154.000
54.04000 152.000
54.12000 134.000
54.20000 152.000
54.28000 156.000
54.36000 134.000
54.44000 148.000
54.52000 151.000
54.60000 141.000
54.68000 140.000
54.76000 158.000
54.84000 159.000
54.92000 157.000
55.00000 153.000
55.08000 149.000
55.16000 149.000
55.24000 138.000
55.32000 172.000
55.40000 166.000
55.48000 156.000
55.56000 143.000
55.64000 159.000
55.72000 143.000
55.80000 138.000
55.88000 160.000
55.96000 143.000
56.04000 146.000
56.12000 128.000
56.20000 152.000
56.28000 154.000
56.36000 132.000
56.44000 155.000
56.52000 146.000
56.60000 146.000
56.68000 160.000
56.76000 155.000
56.84000 170.000
56.92000 142.000
57.00000 145.000
57.08000 155.000
57.16000 135.000
57.24000 155.000
57.32000 153.000
57.40000 164.000
57.48000 147.000
57.56000 130.000
57.64000 132.000
57.72000 147.000
57.80000 135.000
57.88000 130.000
57.96000 146.000
58.04000 151.000
58.12000 131.000
58.20000 155.000
58.28000 138.000
58.36000 142.000
58.44000 137.000
58.52000 130.000
58.60000 147.000
58.68000 133.000
58.76000 136.000
58.84000 139.000
58.92000 130.000
59.00000 123.000
59.08000 131.000
59.16000 129.000
59.24000 170.000
59.32000 133.000
59.40000 147.000
59.48000 135.000
59.56000 137.000
59.64000 107.000
59.72000 121.000
59.80000 140.000
59.88000 120.000
59.96000 147.000
60.04000 147.000
60.12000 128.000
60.20000 123.000
60.28000 137.000
60.36000 118.000
60.44000 124.000
60.52000 146.000
60.60000 142.000
60.68000 122.000
60.76000 128.000
60.84000 131.000
60.92000 124.000
61.00000 144.000
61.08000 123.000
61.16000 159.000
61.24000 164.000
61.32000 230.000
61.40000 203.000
61.48000 176.000
61.56000 155.000
61.64000 132.000
61.72000 130.000
61.80000 136.000
61.88000 127.000
61.96000 134.000
62.04000 126.000
62.12000 131.000
62.20000 116.000
62.28000 119.000
62.36000 139.000
62.44000 108.000
62.52000 145.000
62.60000 129.000
62.68000 114.000
62.76000 140.000
62.84000 132.000
62.92000 127.000
63.00000 105.000
63.08000 136.000
63.16000 144.000
63.24000 136.000
63.32000 140.000
63.40000 143.000
63.48000 152.000
63.56000 155.000
63.64000 125.000
63.72000 117.000
63.80000 137.000
63.88000 135.000
63.96000 150.000
64.04000 120.000
64.12000 131.000
64.20000 135.000
64.28000 122.000
64.36000 140.000
64.44000 131.000
64.52000 144.000
64.60000 133.000
64.68000 133.000
64.76000 123.000
64.84000 120.000
64.92000 140.000
65.00000 141.000
65.08000 133.000
65.16000 134.000
65.24000 140.000
65.32000 117.000
65.40000 135.000
65.48000 146.000
65.56000 140.000
65.64000 121.000
65.72000 132.000
65.80000 139.000
65.88000 146.000
65.96000 133.000
66.04000 134.000
66.12000 121.000
66.20000 146.000
66.28000 156.000
66.36000 125.000
66.44000 127.000
66.52000 140.000
66.60000 157.000
66.68000 163.000
66.76000 143.000
66.84000 136.000
66.92000 152.000
67.00000 210.000
67.08000 335.000
67.16000 415.000
67.24000 286.000
67.32000 302.000
67.40000 223.000
67.48000 176.000
67.56000 145.000
67.64000 158.000
67.72000 144.000
67.80000 151.000
67.88000 136.000
67.96000 147.000
68.04000 130.000
68.12000 145.000
68.20000 158.000
68.28000 141.000
68.36000 148.000
68.44000 147.000
68.52000 145.000
68.60000 145.000
68.68000 141.000
68.76000 159.000
68.84000 179.000
68.92000 299.000
69.00000 517.000
69.08000 417.000
69.16000 338.000
69.24000 331.000
69.32000 241.000
69.40000 167.000
69.48000 158.000
69.56000 138.000
69.64000 146.000
69.72000 129.000
69.80000 128.000
69.88000 122.000
69.92000 134.000