File: XRD/23.xy
10.00000 812.000
10.04000 758.000
10.08000 759.000
10.12000 796.000
10.16000 691.000
10.20000 706.000
10.24000 671.000
10.28000 686.000
10.32000 723.000
10.36000 653.000
10.40000 637.000
10.44000 675.000
10.48000 687.000
10.52000 647.000
10.56000 661.000
10.60000 673.000
10.64000 689.000
10.68000 623.000
10.72000 671.000
10.76000 613.000
10.80000 660.000
10.84000 635.000
10.88000 697.000
10.92000 650.000
10.96000 635.000
11.00000 627.000
11.04000 663.000
11.08000 613.000
11.12000 656.000
11.16000 609.000
11.20000 648.000
11.24000 649.000
11.28000 605.000
11.32000 632.000
11.36000 677.000
11.40000 645.000
11.44000 630.000
11.48000 584.000
11.52000 619.000
11.56000 658.000
11.60000 613.000
11.64000 666.000
11.68000 606.000
11.72000 599.000
11.76000 623.000
11.80000 671.000
11.84000 604.000
11.88000 642.000
11.92000 606.000
11.96000 627.000
12.00000 649.000
12.04000 660.000
12.08000 683.000
12.12000 681.000
12.16000 689.000
12.20000 770.000
12.24000 746.000
12.28000 774.000
12.32000 749.000
12.36000 793.000
12.40000 821.000
12.44000 968.000
12.48000 1045.000
12.52000 1363.000
12.56000 1583.000
12.60000 1937.000
12.64000 2361.000
12.68000 2642.000
12.72000 2882.000
12.76000 3203.000
12.80000 3709.000
12.84000 4561.000
12.88000 4792.000
12.92000 3754.000
12.96000 2612.000
13.00000 1747.000
13.04000 1245.000
13.08000 1010.000
13.12000 844.000
13.16000 773.000
13.20000 719.000
13.24000 709.000
13.28000 765.000
13.32000 813.000
13.36000 820.000
13.40000 850.000
13.44000 899.000
13.48000 932.000
13.52000 849.000
13.56000 723.000
13.60000 699.000
13.64000 710.000
13.68000 677.000
13.72000 685.000
13.76000 709.000
13.80000 714.000
13.84000 737.000
13.88000 760.000
13.92000 883.000
13.96000 923.000
14.00000 1120.000
14.04000 1274.000
14.08000 1438.000
14.12000 1714.000
14.16000 2373.000
14.20000 3439.000
14.24000 5087.000
14.28000 7084.000
14.32000 8101.000
14.36000 6785.000
14.40000 4556.000
14.44000 2849.000
14.48000 1917.000
14.52000 1386.000
14.56000 1207.000
14.60000 1054.000
14.64000 1115.000
14.68000 1281.000
14.72000 1479.000
14.76000 1647.000
14.80000 2011.000
14.84000 2181.000
14.88000 2049.000
14.92000 1676.000
14.96000 1279.000
15.00000 999.000
15.04000 837.000
15.08000 699.000
15.12000 624.000
15.16000 603.000
15.20000 545.000
15.24000 474.000
15.28000 499.000
15.32000 479.000
15.36000 505.000
15.40000 484.000
15.44000 478.000
15.48000 500.000
15.52000 449.000
15.56000 485.000
15.60000 465.000
15.64000 446.000
15.68000 438.000
15.72000 473.000
15.76000 456.000
15.80000 470.000
15.84000 464.000
15.88000 409.000
15.92000 464.000
15.96000 452.000
16.00000 427.000
16.04000 434.000
16.08000 431.000
16.12000 459.000
16.16000 443.000
16.20000 440.000
16.24000 452.000
16.28000 388.000
16.32000 466.000
16.36000 412.000
16.40000 447.000
16.44000 420.000
16.48000 437.000
16.52000 422.000
16.56000 443.000
16.60000 462.000
16.64000 414.000
16.68000 431.000
16.72000 420.000
16.76000 423.000
16.80000 431.000
16.84000 456.000
16.88000 449.000
16.92000 428.000
16.96000 419.000
17.00000 416.000
17.04000 431.000
17.08000 437.000
17.12000 441.000
17.16000 451.000
17.20000 411.000
17.24000 444.000
17.28000 432.000
17.32000 438.000
17.36000 413.000
17.40000 424.000
17.44000 408.000
17.48000 391.000
17.52000 436.000
17.56000 424.000
17.60000 436.000
17.64000 470.000
17.68000 416.000
17.72000 398.000
17.76000 414.000
17.80000 412.000
17.84000 443.000
17.88000 422.000
17.92000 412.000
17.96000 439.000
18.00000 453.000
18.04000 393.000
18.08000 442.000
18.12000 403.000
18.16000 415.000
18.20000 410.000
18.24000 400.000
18.28000 409.000
18.32000 422.000
18.36000 406.000
18.40000 421.000
18.44000 385.000
18.48000 400.000
18.52000 428.000
18.56000 418.000
18.60000 381.000
18.64000 435.000
18.68000 401.000
18.72000 415.000
18.76000 390.000
18.80000 400.000
18.84000 407.000
18.88000 416.000
18.92000 440.000
18.96000 404.000
19.00000 430.000
19.04000 414.000
19.08000 400.000
19.12000 423.000
19.16000 423.000
19.20000 425.000
19.24000 451.000
19.28000 418.000
19.32000 421.000
19.36000 414.000
19.40000 413.000
19.44000 438.000
19.48000 452.000
19.52000 442.000
19.56000 477.000
19.60000 516.000
19.64000 544.000
19.68000 585.000
19.72000 697.000
19.76000 655.000
19.80000 631.000
19.84000 607.000
19.88000 567.000
19.92000 568.000
19.96000 629.000
20.00000 621.000
20.04000 618.000
20.08000 604.000
20.12000 497.000
20.16000 490.000
20.20000 452.000
20.24000 443.000
20.28000 429.000
20.32000 424.000
20.36000 422.000
20.40000 423.000
20.44000 423.000
20.48000 424.000
20.52000 435.000
20.56000 414.000
20.60000 413.000
20.64000 430.000
20.68000 443.000
20.72000 436.000
20.76000 441.000
20.80000 395.000
20.84000 444.000
20.88000 405.000
20.92000 466.000
20.96000 483.000
21.00000 427.000
21.04000 495.000
21.08000 460.000
21.12000 483.000
21.16000 419.000
21.20000 474.000
21.24000 457.000
21.28000 437.000
21.32000 468.000
21.36000 457.000
21.40000 440.000
21.44000 453.000
21.48000 445.000
21.52000 468.000
21.56000 513.000
21.60000 434.000
21.64000 412.000
21.68000 459.000
21.72000 461.000
21.76000 451.000
21.80000 402.000
21.84000 445.000
21.88000 431.000
21.92000 493.000
21.96000 449.000
22.00000 436.000
22.04000 417.000
22.08000 421.000
22.12000 430.000
22.16000 463.000
22.20000 455.000
22.24000 411.000
22.28000 435.000
22.32000 398.000
22.36000 491.000
22.40000 440.000
22.44000 437.000
22.48000 470.000
22.52000 438.000
22.56000 439.000
22.60000 482.000
22.64000 427.000
22.68000 465.000
22.72000 443.000
22.76000 437.000
22.80000 426.000
22.84000 420.000
22.88000 465.000
22.92000 464.000
22.96000 468.000
23.00000 501.000
23.04000 474.000
23.08000 436.000
23.12000 476.000
23.16000 465.000
23.20000 451.000
23.24000 479.000
23.28000 485.000
23.32000 454.000
23.36000 443.000
23.40000 463.000
23.44000 447.000
23.48000 462.000
23.52000 404.000
23.56000 484.000
23.60000 446.000
23.64000 477.000
23.68000 503.000
23.72000 467.000
23.76000 464.000
23.80000 447.000
23.84000 469.000
23.88000 508.000
23.92000 489.000
23.96000 518.000
24.00000 504.000
24.04000 506.000
24.08000 562.000
24.12000 513.000
24.16000 461.000
24.20000 491.000
24.24000 486.000
24.28000 502.000
24.32000 506.000
24.36000 515.000
24.40000 524.000
24.44000 540.000
24.48000 546.000
24.52000 588.000
24.56000 598.000
24.60000 639.000
24.64000 754.000
24.68000 689.000
24.72000 699.000
24.76000 770.000
24.80000 718.000
24.84000 638.000
24.88000 678.000
24.92000 614.000
24.96000 598.000
25.00000 594.000
25.04000 568.000
25.08000 614.000
25.12000 632.000
25.16000 647.000
25.20000 699.000
25.24000 790.000
25.28000 903.000
25.32000 973.000
25.36000 1015.000
25.40000 1083.000
25.44000 1018.000
25.48000 1048.000
25.52000 1187.000
25.56000 1457.000
25.60000 1830.000
25.64000 2387.000
25.68000 3189.000
25.72000 3951.000
25.76000 4431.000
25.80000 4356.000
25.84000 3720.000
25.88000 2795.000
25.92000 1987.000
25.96000 1448.000
26.00000 1084.000
26.04000 897.000
26.08000 734.000
26.12000 608.000
26.16000 625.000
26.20000 609.000
26.24000 607.000
26.28000 583.000
26.32000 639.000
26.36000 623.000
26.40000 655.000
26.44000 673.000
26.48000 573.000
26.52000 542.000
26.56000 548.000
26.60000 474.000
26.64000 497.000
26.68000 491.000
26.72000 478.000
26.76000 481.000
26.80000 463.000
26.84000 492.000
26.88000 443.000
26.92000 474.000
26.96000 432.000
27.00000 442.000
27.04000 467.000
27.08000 462.000
27.12000 425.000
27.16000 435.000
27.20000 447.000
27.24000 432.000
27.28000 407.000
27.32000 427.000
27.36000 456.000
27.40000 474.000
27.44000 451.000
27.48000 446.000
27.52000 490.000
27.56000 425.000
27.60000 409.000
27.64000 479.000
27.68000 461.000
27.72000 454.000
27.76000 426.000
27.80000 453.000
27.84000 430.000
27.88000 446.000
27.92000 446.000
27.96000 450.000
28.00000 447.000
28.04000 488.000
28.08000 454.000
28.12000 444.000
28.16000 455.000
28.20000 497.000
28.24000 457.000
28.28000 467.000
28.32000 438.000
28.36000 455.000
28.40000 460.000
28.44000 517.000
28.48000 557.000
28.52000 543.000
28.56000 689.000
28.60000 799.000
28.64000 1096.000
28.68000 1429.000
28.72000 1605.000
28.76000 1571.000
28.80000 1374.000
28.84000 1092.000
28.88000 839.000
28.92000 637.000
28.96000 585.000
29.00000 522.000
29.04000 466.000
29.08000 492.000
29.12000 413.000
29.16000 446.000
29.20000 471.000
29.24000 436.000
29.28000 483.000
29.32000 445.000
29.36000 491.000
29.40000 451.000
29.44000 466.000
29.48000 538.000
29.52000 535.000
29.56000 619.000
29.60000 647.000
29.64000 717.000
29.68000 871.000
29.72000 1068.000
29.76000 1211.000
29.80000 1388.000
29.84000 1338.000
29.88000 1312.000
29.92000 1127.000
29.96000 947.000
30.00000 739.000
30.04000 645.000
30.08000 530.000
30.12000 497.000
30.16000 464.000
30.20000 421.000
30.24000 452.000
30.28000 408.000
30.32000 434.000
30.36000 416.000
30.40000 386.000
30.44000 426.000
30.48000 410.000
30.52000 419.000
30.56000 387.000
30.60000 403.000
30.64000 366.000
30.68000 367.000
30.72000 399.000
30.76000 395.000
30.80000 410.000
30.84000 359.000
30.88000 409.000
30.92000 375.000
30.96000 373.000
31.00000 388.000
31.04000 339.000
31.08000 360.000
31.12000 341.000
31.16000 385.000
31.20000 367.000
31.24000 363.000
31.28000 333.000
31.32000 388.000
31.36000 351.000
31.40000 392.000
31.44000 349.000
31.48000 375.000
31.52000 347.000
31.56000 356.000
31.60000 376.000
31.64000 358.000
31.68000 405.000
31.72000 413.000
31.76000 439.000
31.80000 398.000
31.84000 420.000
31.88000 398.000
31.92000 397.000
31.96000 379.000
32.00000 424.000
32.04000 436.000
32.08000 441.000
32.12000 435.000
32.16000 449.000
32.20000 454.000
32.24000 482.000
32.28000 458.000
32.32000 400.000
32.36000 398.000
32.40000 387.000
32.44000 352.000
32.48000 391.000
32.52000 319.000
32.56000 424.000
32.60000 354.000
32.64000 388.000
32.68000 344.000
32.72000 344.000
32.76000 358.000
32.80000 332.000
32.84000 317.000
32.88000 374.000
32.92000 332.000
32.96000 305.000
33.00000 355.000
33.04000 353.000
33.08000 314.000
33.12000 358.000
33.16000 397.000
33.20000 392.000
33.24000 391.000
33.28000 441.000
33.32000 460.000
33.36000 485.000
33.40000 574.000
33.44000 575.000
33.48000 509.000
33.52000 473.000
33.56000 424.000
33.60000 412.000
33.64000 382.000
33.68000 366.000
33.72000 368.000
33.76000 335.000
33.80000 343.000
33.84000 347.000
33.88000 321.000
33.92000 318.000
33.96000 347.000
34.00000 321.000
34.04000 307.000
34.08000 295.000
34.12000 287.000
34.16000 266.000
34.20000 280.000
34.24000 264.000
34.28000 300.000
34.32000 311.000
34.36000 309.000
34.40000 306.000
34.44000 332.000
34.48000 314.000
34.52000 307.000
34.56000 283.000
34.60000 315.000
34.64000 348.000
34.68000 305.000
34.72000 290.000
34.76000 314.000
34.80000 310.000
34.84000 302.000
34.88000 297.000
34.92000 327.000
34.96000 306.000
35.00000 297.000
35.04000 326.000
35.08000 309.000
35.12000 322.000
35.16000 307.000
35.20000 340.000
35.24000 318.000
35.28000 296.000
35.32000 296.000
35.36000 278.000
35.40000 287.000
35.44000 266.000
35.48000 263.000
35.52000 267.000
35.56000 283.000
35.60000 295.000
35.64000 270.000
35.68000 261.000
35.72000 268.000
35.76000 273.000
35.80000 268.000
35.84000 290.000
35.88000 292.000
35.92000 235.000
35.96000 256.000
36.00000 251.000
36.04000 261.000
36.08000 253.000
36.12000 253.000
36.16000 255.000
36.20000 264.000
36.24000 262.000
36.28000 254.000
36.32000 236.000
36.36000 273.000
36.40000 305.000
36.44000 257.000
36.48000 246.000
36.52000 258.000
36.56000 254.000
36.60000 261.000
36.64000 254.000
36.68000 270.000
36.72000 278.000
36.76000 259.000
36.80000 241.000
36.84000 260.000
36.88000 221.000
36.92000 242.000
36.96000 237.000
37.00000 250.000
37.04000 288.000
37.08000 250.000
37.12000 226.000
37.16000 264.000
37.20000 249.000
37.24000 240.000
37.28000 247.000
37.32000 228.000
37.36000 258.000
37.40000 239.000
37.44000 265.000
37.48000 270.000
37.52000 276.000
37.56000 220.000
37.60000 246.000
37.64000 224.000
37.68000 217.000
37.72000 196.000
37.76000 220.000
37.80000 227.000
37.84000 227.000
37.88000 253.000
37.92000 259.000
37.96000 241.000
38.00000 221.000
38.04000 216.000
38.08000 239.000
38.12000 241.000
38.16000 250.000
38.20000 219.000
38.24000 234.000
38.28000 239.000
38.32000 237.000
38.36000 198.000
38.40000 252.000
38.44000 241.000
38.48000 237.000
38.52000 257.000
38.56000 253.000
38.60000 256.000
38.64000 273.000
38.68000 273.000
38.72000 230.000
38.76000 266.000
38.80000 293.000
38.84000 288.000
38.88000 304.000
38.92000 339.000
38.96000 359.000
39.00000 368.000
39.04000 368.000
39.08000 363.000
39.12000 305.000
39.16000 277.000
39.20000 269.000
39.24000 238.000
39.28000 243.000
39.32000 220.000
39.36000 223.000
39.40000 224.000
39.44000 243.000
39.48000 211.000
39.52000 227.000
39.56000 207.000
39.60000 226.000
39.64000 235.000
39.68000 228.000
39.72000 224.000
39.76000 194.000
39.80000 223.000
39.84000 229.000
39.88000 249.000
39.92000 238.000
39.96000 220.000
40.00000 232.000
40.04000 252.000
40.08000 228.000
40.12000 230.000
40.16000 231.000
40.20000 235.000
40.24000 225.000
40.28000 226.000
40.32000 217.000
40.36000 219.000
40.40000 232.000
40.44000 244.000
40.48000 238.000
40.52000 241.000
40.56000 233.000
40.60000 243.000
40.64000 238.000
40.68000 250.000
40.72000 292.000
40.76000 239.000
40.80000 255.000
40.84000 204.000
40.88000 206.000
40.92000 246.000
40.96000 225.000
41.00000 242.000
41.04000 225.000
41.08000 258.000
41.12000 235.000
41.16000 205.000
41.20000 203.000
41.24000 211.000
41.28000 215.000
41.32000 211.000
41.36000 216.000
41.40000 215.000
41.44000 195.000
41.48000 185.000
41.52000 202.000
41.56000 220.000
41.60000 179.000
41.64000 190.000
41.68000 214.000
41.72000 203.000
41.76000 200.000
41.80000 232.000
41.84000 234.000
41.88000 201.000
41.92000 199.000
41.96000 197.000
42.00000 216.000
42.04000 197.000
42.08000 235.000
42.12000 221.000
42.16000 216.000
42.20000 223.000
42.24000 242.000
42.28000 225.000
42.32000 237.000
42.36000 270.000
42.40000 281.000
42.44000 330.000
42.48000 354.000
42.52000 407.000
42.56000 464.000
42.60000 475.000
42.64000 478.000
42.68000 489.000
42.72000 429.000
42.76000 394.000
42.80000 324.000
42.84000 316.000
42.88000 301.000
42.92000 266.000
42.96000 257.000
43.00000 261.000
43.04000 255.000
43.08000 220.000
43.12000 235.000
43.16000 235.000
43.20000 212.000
43.24000 244.000
43.28000 234.000
43.32000 229.000
43.36000 226.000
43.40000 250.000
43.44000 256.000
43.48000 249.000
43.52000 313.000
43.56000 285.000
43.60000 228.000
43.64000 261.000
43.68000 302.000
43.72000 282.000
43.76000 258.000
43.80000 274.000
43.84000 282.000
43.88000 283.000
43.92000 271.000
43.96000 267.000
44.00000 256.000
44.04000 244.000
44.08000 252.000
44.12000 237.000
44.16000 218.000
44.20000 216.000
44.24000 236.000
44.28000 246.000
44.32000 204.000
44.36000 269.000
44.40000 254.000
44.44000 258.000
44.48000 292.000
44.52000 264.000
44.56000 272.000
44.60000 287.000
44.64000 239.000
44.68000 294.000
44.72000 291.000
44.76000 301.000
44.80000 261.000
44.84000 275.000
44.88000 255.000
44.92000 223.000
44.96000 245.000
45.00000 285.000
45.04000 219.000
45.08000 304.000
45.12000 289.000
45.16000 314.000
45.20000 330.000
45.24000 370.000
45.28000 395.000
45.32000 393.000
45.36000 418.000
45.40000 393.000
45.44000 380.000
45.48000 377.000
45.52000 307.000
45.56000 342.000
45.60000 276.000
45.64000 311.000
45.68000 256.000
45.72000 219.000
45.76000 209.000
45.80000 214.000
45.84000 216.000
45.88000 215.000
45.92000 189.000
45.96000 217.000
46.00000 206.000
46.04000 216.000
46.08000 184.000
46.12000 198.000
46.16000 219.000
46.20000 205.000
46.24000 180.000
46.28000 207.000
46.32000 209.000
46.36000 194.000
46.40000 190.000
46.44000 194.000
46.48000 210.000
46.52000 209.000
46.56000 220.000
46.60000 240.000
46.64000 203.000
46.68000 261.000
46.72000 232.000
46.76000 236.000
46.80000 229.000
46.84000 198.000
46.88000 210.000
46.92000 219.000
46.96000 215.000
47.00000 183.000
47.04000 195.000
47.08000 214.000
47.12000 196.000
47.16000 189.000
47.20000 175.000
47.24000 207.000
47.28000 219.000
47.32000 204.000
47.36000 226.000
47.40000 195.000
47.44000 218.000
47.48000 197.000
47.52000 225.000
47.56000 215.000
47.60000 205.000
47.64000 214.000
47.68000 200.000
47.72000 190.000
47.76000 205.000
47.80000 206.000
47.84000 196.000
47.88000 229.000
47.92000 219.000
47.96000 197.000
48.00000 196.000
48.04000 229.000
48.08000 185.000
48.12000 203.000
48.16000 209.000
48.20000 214.000
48.24000 210.000
48.28000 207.000
48.32000 231.000
48.36000 244.000
48.40000 264.000
48.44000 280.000
48.48000 304.000
48.52000 263.000
48.56000 299.000
48.60000 293.000
48.64000 257.000
48.68000 265.000
48.72000 264.000
48.76000 247.000
48.80000 224.000
48.84000 238.000
48.88000 233.000
48.92000 205.000
48.96000 219.000
49.00000 231.000
49.04000 217.000
49.08000 225.000
49.12000 191.000
49.16000 186.000
49.20000 218.000
49.24000 216.000
49.28000 199.000
49.32000 182.000
49.36000 216.000
49.40000 199.000
49.44000 212.000
49.48000 209.000
49.52000 212.000
49.56000 213.000
49.60000 204.000
49.64000 214.000
49.68000 221.000
49.72000 211.000
49.76000 206.000
49.80000 201.000
49.84000 200.000
49.88000 222.000
49.92000 198.000
49.96000 194.000
50.00000 253.000
50.04000 197.000
50.08000 236.000
50.12000 255.000
50.16000 287.000
50.20000 261.000
50.24000 273.000
50.28000 324.000
50.32000 304.000
50.36000 386.000
50.40000 420.000
50.44000 435.000
50.48000 398.000
50.52000 378.000
50.56000 352.000
50.60000 359.000
50.64000 326.000
50.68000 292.000
50.72000 271.000
50.76000 277.000
50.80000 253.000
50.84000 231.000
50.88000 203.000
50.92000 188.000
50.96000 220.000
51.00000 204.000
51.04000 235.000
51.08000 235.000
51.12000 214.000
51.16000 228.000
51.20000 202.000
51.24000 197.000
51.28000 191.000
51.32000 194.000
51.36000 209.000
51.40000 195.000
51.44000 222.000
51.48000 203.000
51.52000 212.000
51.56000 218.000
51.60000 226.000
51.64000 184.000
51.68000 194.000
51.72000 205.000
51.76000 232.000
51.80000 228.000
51.84000 201.000
51.88000 209.000
51.92000 203.000
51.96000 203.000
52.00000 230.000
52.04000 216.000
52.08000 193.000
52.12000 215.000
52.16000 190.000
52.20000 239.000
52.24000 227.000
52.28000 199.000
52.32000 208.000
52.36000 205.000
52.40000 215.000
52.44000 193.000
52.48000 205.000
52.52000 214.000
52.56000 180.000
52.60000 231.000
52.64000 206.000
52.68000 228.000
52.72000 248.000
52.76000 243.000
52.80000 232.000
52.84000 271.000
52.88000 240.000
52.92000 253.000
52.96000 218.000
53.00000 230.000
53.04000 236.000
53.08000 246.000
53.12000 213.000
53.16000 207.000
53.20000 218.000
53.24000 236.000
53.28000 211.000
53.32000 225.000
53.36000 203.000
53.40000 190.000
53.44000 183.000
53.48000 189.000
53.52000 182.000
53.56000 173.000
53.60000 189.000
53.64000 215.000
53.68000 194.000
53.72000 191.000
53.76000 199.000
53.80000 208.000
53.84000 222.000
53.88000 188.000
53.92000 184.000
53.96000 194.000
54.00000 166.000
54.04000 185.000
54.08000 209.000
54.12000 201.000
54.16000 203.000
54.20000 208.000
54.24000 204.000
54.28000 205.000
54.32000 213.000
54.36000 225.000
54.40000 219.000
54.44000 219.000
54.48000 217.000
54.52000 240.000
54.56000 238.000
54.60000 229.000
54.64000 252.000
54.68000 235.000
54.72000 266.000
54.76000 250.000
54.80000 233.000
54.84000 215.000
54.88000 203.000
54.92000 197.000
54.96000 236.000
55.00000 252.000
55.04000 222.000
55.08000 198.000
55.12000 204.000
55.16000 257.000
55.20000 244.000
55.24000 271.000
55.28000 212.000
55.32000 225.000
55.36000 181.000
55.40000 203.000
55.44000 204.000
55.48000 160.000
55.52000 194.000
55.56000 203.000
55.60000 197.000
55.64000 180.000
55.68000 191.000
55.72000 177.000
55.76000 204.000
55.80000 182.000
55.84000 205.000
55.88000 197.000
55.92000 179.000
55.96000 194.000
56.00000 190.000
56.04000 193.000
56.08000 192.000
56.12000 167.000
56.16000 177.000
56.20000 183.000
56.24000 195.000
56.28000 189.000
56.32000 177.000
56.36000 193.000
56.40000 204.000
56.44000 187.000
56.48000 178.000
56.52000 176.000
56.56000 193.000
56.60000 180.000
56.64000 194.000
56.68000 181.000
56.72000 173.000
56.76000 202.000
56.80000 197.000
56.84000 212.000
56.88000 211.000
56.92000 222.000
56.96000 200.000
57.00000 200.000
57.04000 203.000
57.08000 213.000
57.12000 193.000
57.16000 186.000
57.20000 222.000
57.24000 209.000
57.28000 170.000
57.32000 192.000
57.36000 211.000
57.40000 218.000
57.44000 228.000
57.48000 211.000
57.52000 193.000
57.56000 178.000
57.60000 204.000
57.64000 199.000
57.68000 184.000
57.72000 204.000
57.76000 197.000
57.80000 166.000
57.84000 188.000
57.88000 171.000
57.92000 206.000
57.96000 188.000
58.00000 191.000
58.04000 195.000
58.08000 164.000
58.12000 170.000
58.16000 189.000
58.20000 199.000
58.24000 182.000
58.28000 199.000
58.32000 177.000
58.36000 185.000
58.40000 179.000
58.44000 171.000
58.48000 205.000
58.52000 182.000
58.56000 192.000
58.60000 177.000
58.64000 155.000
58.68000 164.000
58.72000 171.000
58.76000 184.000
58.80000 161.000
58.84000 194.000
58.88000 161.000
58.92000 178.000
58.96000 197.000
59.00000 195.000
59.04000 182.000
59.08000 207.000
59.12000 157.000
59.16000 186.000
59.20000 188.000
59.24000 187.000
59.28000 181.000
59.32000 171.000
59.36000 199.000
59.40000 192.000
59.44000 202.000
59.48000 162.000
59.52000 200.000
59.56000 191.000
59.60000 187.000
59.64000 189.000
59.68000 185.000
59.72000 171.000
59.76000 199.000
59.80000 153.000
59.84000 181.000
59.88000 187.000
59.92000 182.000
59.96000 169.000
60.00000 151.000
60.04000 159.000
60.08000 159.000
60.12000 158.000
60.16000 182.000
60.20000 169.000
60.24000 163.000
60.28000 187.000
60.32000 177.000
60.36000 170.000
60.40000 200.000
60.44000 175.000
60.48000 182.000
60.52000 145.000
60.56000 178.000
60.60000 195.000
60.64000 181.000
60.68000 164.000
60.72000 203.000
60.76000 157.000
60.80000 175.000
60.84000 174.000
60.88000 180.000
60.92000 186.000
60.96000 164.000
61.00000 170.000
61.04000 182.000
61.08000 157.000
61.12000 149.000
61.16000 187.000
61.20000 160.000
61.24000 200.000
61.28000 204.000
61.32000 199.000
61.36000 193.000
61.40000 211.000
61.44000 185.000
61.48000 196.000
61.52000 181.000
61.56000 183.000
61.60000 199.000
61.64000 167.000
61.68000 202.000
61.72000 194.000
61.76000 170.000
61.80000 186.000
61.84000 164.000
61.88000 178.000
61.92000 175.000
61.96000 176.000
62.00000 179.000
62.04000 191.000
62.08000 196.000
62.12000 177.000
62.16000 168.000
62.20000 165.000
62.24000 182.000
62.28000 166.000
62.32000 176.000
62.36000 182.000
62.40000 170.000
62.44000 176.000
62.48000 197.000
62.52000 187.000
62.56000 152.000
62.60000 195.000
62.64000 189.000
62.68000 166.000
62.72000 188.000
62.76000 174.000
62.80000 162.000
62.84000 176.000
62.88000 183.000
62.92000 191.000
62.96000 158.000
63.00000 181.000
63.04000 171.000
63.08000 181.000
63.12000 161.000
63.16000 172.000
63.20000 163.000
63.24000 167.000
63.28000 163.000
63.32000 180.000
63.36000 153.000
63.40000 168.000
63.44000 177.000
63.48000 184.000
63.52000 164.000
63.56000 152.000
63.60000 172.000
63.64000 165.000
63.68000 192.000
63.72000 175.000
63.76000 184.000
63.80000 207.000
63.84000 195.000
63.88000 196.000
63.92000 191.000
63.96000 194.000
64.00000 189.000
64.04000 193.000
64.08000 184.000
64.12000 189.000
64.16000 181.000
64.20000 159.000
64.24000 175.000
64.28000 209.000
64.32000 176.000
64.36000 160.000
64.40000 165.000
64.44000 182.000
64.48000 180.000
64.52000 171.000
64.56000 182.000
64.60000 188.000
64.64000 177.000
64.68000 192.000
64.72000 166.000
64.76000 176.000
64.80000 176.000
64.84000 180.000
64.88000 174.000
64.92000 178.000
64.96000 180.000
65.00000 179.000
65.04000 178.000
65.08000 175.000
65.12000 177.000
65.16000 163.000
65.20000 200.000
65.24000 158.000
65.28000 165.000
65.32000 184.000
65.36000 180.000
65.40000 194.000
65.44000 183.000
65.48000 184.000
65.52000 187.000
65.56000 176.000
65.60000 165.000
65.64000 171.000
65.68000 146.000
65.72000 178.000
65.76000 180.000
65.80000 177.000
65.84000 150.000
65.88000 150.000
65.92000 161.000
65.96000 185.000
66.00000 186.000
66.04000 168.000
66.08000 158.000
66.12000 142.000
66.16000 152.000
66.20000 163.000
66.24000 184.000
66.28000 177.000
66.32000 199.000
66.36000 186.000
66.40000 170.000
66.44000 172.000
66.48000 183.000
66.52000 178.000
66.56000 159.000
66.60000 163.000
66.64000 159.000
66.68000 185.000
66.72000 167.000
66.76000 177.000
66.80000 196.000
66.84000 188.000
66.88000 193.000
66.92000 162.000
66.96000 170.000
67.00000 182.000
67.04000 204.000
67.08000 192.000
67.12000 219.000
67.16000 200.000
67.20000 238.000
67.24000 224.000
67.28000 202.000
67.32000 189.000
67.36000 192.000
67.40000 202.000
67.44000 207.000
67.48000 213.000
67.52000 181.000
67.56000 179.000
67.60000 172.000
67.64000 186.000
67.68000 200.000
67.72000 156.000
67.76000 207.000
67.80000 189.000
67.84000 171.000
67.88000 163.000
67.92000 190.000
67.96000 165.000
68.00000 182.000
68.04000 177.000
68.08000 178.000
68.12000 186.000
68.16000 212.000
68.20000 208.000
68.24000 159.000
68.28000 188.000
68.32000 197.000
68.36000 172.000
68.40000 177.000
68.44000 156.000
68.48000 176.000
68.52000 180.000
68.56000 175.000
68.60000 162.000
68.64000 171.000
68.68000 156.000
68.72000 173.000
68.76000 201.000
68.80000 185.000
68.84000 176.000
68.88000 175.000
68.92000 209.000
68.96000 207.000
69.00000 222.000
69.04000 191.000
69.08000 244.000
69.12000 213.000
69.16000 213.000
69.20000 215.000
69.24000 229.000
69.28000 216.000
69.32000 182.000
69.36000 192.000
69.40000 205.000
69.44000 180.000
69.48000 184.000
69.52000 181.000
69.56000 212.000
69.60000 187.000
69.64000 147.000
69.68000 201.000
69.72000 174.000
69.76000 188.000
69.80000 183.000
69.84000 175.000
69.88000 181.000
69.92000 192.000