File: XRD/24.xy
10.00000 719.000
10.04000 751.000
10.08000 736.000
10.12000 706.000
10.16000 746.000
10.20000 694.000
10.24000 718.000
10.28000 718.000
10.32000 702.000
10.36000 670.000
10.40000 699.000
10.44000 708.000
10.48000 664.000
10.52000 667.000
10.56000 708.000
10.60000 675.000
10.64000 713.000
10.68000 632.000
10.72000 660.000
10.76000 662.000
10.80000 628.000
10.84000 701.000
10.88000 673.000
10.92000 655.000
10.96000 679.000
11.00000 641.000
11.04000 626.000
11.08000 668.000
11.12000 636.000
11.16000 644.000
11.20000 724.000
11.24000 679.000
11.28000 658.000
11.32000 671.000
11.36000 638.000
11.40000 633.000
11.44000 666.000
11.48000 609.000
11.52000 647.000
11.56000 636.000
11.60000 655.000
11.64000 606.000
11.68000 641.000
11.72000 579.000
11.76000 630.000
11.80000 641.000
11.84000 590.000
11.88000 630.000
11.92000 607.000
11.96000 609.000
12.00000 627.000
12.04000 645.000
12.08000 625.000
12.12000 635.000
12.16000 633.000
12.20000 642.000
12.24000 687.000
12.28000 645.000
12.32000 665.000
12.36000 611.000
12.40000 614.000
12.44000 667.000
12.48000 638.000
12.52000 659.000
12.56000 694.000
12.60000 706.000
12.64000 742.000
12.68000 724.000
12.72000 773.000
12.76000 781.000
12.80000 843.000
12.84000 936.000
12.88000 926.000
12.92000 922.000
12.96000 914.000
13.00000 845.000
13.04000 756.000
13.08000 743.000
13.12000 716.000
13.16000 795.000
13.20000 695.000
13.24000 712.000
13.28000 748.000
13.32000 796.000
13.36000 773.000
13.40000 783.000
13.44000 779.000
13.48000 821.000
13.52000 829.000
13.56000 868.000
13.60000 903.000
13.64000 930.000
13.68000 1005.000
13.72000 1078.000
13.76000 1080.000
13.80000 1091.000
13.84000 1228.000
13.88000 1355.000
13.92000 1461.000
13.96000 1650.000
14.00000 2159.000
14.04000 2758.000
14.08000 3731.000
14.12000 5229.000
14.16000 8005.000
14.20000 12554.000
14.24000 19693.000
14.28000 30208.000
14.32000 37069.000
14.36000 33013.000
14.40000 21088.000
14.44000 12201.000
14.48000 7639.000
14.52000 5199.000
14.56000 3925.000
14.60000 3366.000
14.64000 3432.000
14.68000 3533.000
14.72000 4071.000
14.76000 4654.000
14.80000 5220.000
14.84000 5456.000
14.88000 5244.000
14.92000 4654.000
14.96000 3612.000
15.00000 2665.000
15.04000 2144.000
15.08000 1675.000
15.12000 1385.000
15.16000 1163.000
15.20000 1068.000
15.24000 946.000
15.28000 872.000
15.32000 836.000
15.36000 795.000
15.40000 744.000
15.44000 704.000
15.48000 694.000
15.52000 746.000
15.56000 687.000
15.60000 598.000
15.64000 577.000
15.68000 598.000
15.72000 571.000
15.76000 525.000
15.80000 587.000
15.84000 557.000
15.88000 568.000
15.92000 535.000
15.96000 516.000
16.00000 501.000
16.04000 515.000
16.08000 512.000
16.12000 531.000
16.16000 500.000
16.20000 488.000
16.24000 534.000
16.28000 474.000
16.32000 479.000
16.36000 495.000
16.40000 498.000
16.44000 483.000
16.48000 460.000
16.52000 486.000
16.56000 459.000
16.60000 433.000
16.64000 487.000
16.68000 444.000
16.72000 471.000
16.76000 515.000
16.80000 437.000
16.84000 501.000
16.88000 472.000
16.92000 462.000
16.96000 489.000
17.00000 466.000
17.04000 476.000
17.08000 468.000
17.12000 478.000
17.16000 476.000
17.20000 466.000
17.24000 451.000
17.28000 468.000
17.32000 412.000
17.36000 503.000
17.40000 488.000
17.44000 466.000
17.48000 461.000
17.52000 456.000
17.56000 426.000
17.60000 466.000
17.64000 491.000
17.68000 453.000
17.72000 461.000
17.76000 444.000
17.80000 455.000
17.84000 456.000
17.88000 496.000
17.92000 439.000
17.96000 444.000
18.00000 460.000
18.04000 461.000
18.08000 479.000
18.12000 440.000
18.16000 468.000
18.20000 433.000
18.24000 464.000
18.28000 452.000
18.32000 504.000
18.36000 452.000
18.40000 429.000
18.44000 440.000
18.48000 424.000
18.52000 448.000
18.56000 493.000
18.60000 457.000
18.64000 478.000
18.68000 463.000
18.72000 459.000
18.76000 493.000
18.80000 435.000
18.84000 421.000
18.88000 497.000
18.92000 424.000
18.96000 466.000
19.00000 489.000
19.04000 417.000
19.08000 489.000
19.12000 443.000
19.16000 503.000
19.20000 457.000
19.24000 483.000
19.28000 496.000
19.32000 465.000
19.36000 446.000
19.40000 469.000
19.44000 491.000
19.48000 494.000
19.52000 464.000
19.56000 461.000
19.60000 454.000
19.64000 464.000
19.68000 492.000
19.72000 485.000
19.76000 501.000
19.80000 537.000
19.84000 508.000
19.88000 531.000
19.92000 444.000
19.96000 463.000
20.00000 482.000
20.04000 475.000
20.08000 506.000
20.12000 474.000
20.16000 455.000
20.20000 489.000
20.24000 487.000
20.28000 456.000
20.32000 440.000
20.36000 462.000
20.40000 512.000
20.44000 450.000
20.48000 494.000
20.52000 461.000
20.56000 460.000
20.60000 506.000
20.64000 473.000
20.68000 490.000
20.72000 455.000
20.76000 508.000
20.80000 524.000
20.84000 464.000
20.88000 462.000
20.92000 485.000
20.96000 500.000
21.00000 476.000
21.04000 559.000
21.08000 467.000
21.12000 489.000
21.16000 454.000
21.20000 471.000
21.24000 521.000
21.28000 468.000
21.32000 530.000
21.36000 480.000
21.40000 522.000
21.44000 492.000
21.48000 493.000
21.52000 489.000
21.56000 512.000
21.60000 485.000
21.64000 508.000
21.68000 499.000
21.72000 466.000
21.76000 479.000
21.80000 508.000
21.84000 507.000
21.88000 484.000
21.92000 496.000
21.96000 524.000
22.00000 508.000
22.04000 493.000
22.08000 519.000
22.12000 511.000
22.16000 510.000
22.20000 523.000
22.24000 538.000
22.28000 503.000
22.32000 540.000
22.36000 512.000
22.40000 502.000
22.44000 502.000
22.48000 501.000
22.52000 508.000
22.56000 530.000
22.60000 495.000
22.64000 509.000
22.68000 513.000
22.72000 529.000
22.76000 524.000
22.80000 553.000
22.84000 544.000
22.88000 543.000
22.92000 518.000
22.96000 507.000
23.00000 518.000
23.04000 522.000
23.08000 514.000
23.12000 522.000
23.16000 527.000
23.20000 520.000
23.24000 497.000
23.28000 527.000
23.32000 497.000
23.36000 555.000
23.40000 588.000
23.44000 555.000
23.48000 532.000
23.52000 458.000
23.56000 545.000
23.60000 537.000
23.64000 550.000
23.68000 506.000
23.72000 537.000
23.76000 540.000
23.80000 560.000
23.84000 534.000
23.88000 553.000
23.92000 538.000
23.96000 526.000
24.00000 553.000
24.04000 527.000
24.08000 527.000
24.12000 513.000
24.16000 527.000
24.20000 532.000
24.24000 539.000
24.28000 544.000
24.32000 579.000
24.36000 557.000
24.40000 599.000
24.44000 513.000
24.48000 549.000
24.52000 556.000
24.56000 526.000
24.60000 633.000
24.64000 584.000
24.68000 604.000
24.72000 583.000
24.76000 626.000
24.80000 641.000
24.84000 691.000
24.88000 679.000
24.92000 614.000
24.96000 603.000
25.00000 598.000
25.04000 559.000
25.08000 554.000
25.12000 522.000
25.16000 594.000
25.20000 549.000
25.24000 573.000
25.28000 550.000
25.32000 556.000
25.36000 506.000
25.40000 559.000
25.44000 578.000
25.48000 577.000
25.52000 665.000
25.56000 642.000
25.60000 675.000
25.64000 717.000
25.68000 748.000
25.72000 827.000
25.76000 760.000
25.80000 817.000
25.84000 772.000
25.88000 682.000
25.92000 667.000
25.96000 626.000
26.00000 635.000
26.04000 577.000
26.08000 584.000
26.12000 562.000
26.16000 559.000
26.20000 575.000
26.24000 528.000
26.28000 545.000
26.32000 547.000
26.36000 559.000
26.40000 549.000
26.44000 541.000
26.48000 534.000
26.52000 503.000
26.56000 485.000
26.60000 540.000
26.64000 586.000
26.68000 559.000
26.72000 510.000
26.76000 502.000
26.80000 513.000
26.84000 487.000
26.88000 543.000
26.92000 511.000
26.96000 522.000
27.00000 554.000
27.04000 535.000
27.08000 523.000
27.12000 551.000
27.16000 491.000
27.20000 470.000
27.24000 518.000
27.28000 555.000
27.32000 514.000
27.36000 559.000
27.40000 484.000
27.44000 517.000
27.48000 501.000
27.52000 534.000
27.56000 554.000
27.60000 580.000
27.64000 564.000
27.68000 526.000
27.72000 536.000
27.76000 601.000
27.80000 556.000
27.84000 559.000
27.88000 551.000
27.92000 515.000
27.96000 516.000
28.00000 584.000
28.04000 542.000
28.08000 539.000
28.12000 577.000
28.16000 547.000
28.20000 575.000
28.24000 565.000
28.28000 585.000
28.32000 615.000
28.36000 606.000
28.40000 625.000
28.44000 692.000
28.48000 826.000
28.52000 934.000
28.56000 1166.000
28.60000 1637.000
28.64000 2295.000
28.68000 3228.000
28.72000 4049.000
28.76000 4194.000
28.80000 3562.000
28.84000 2650.000
28.88000 1755.000
28.92000 1255.000
28.96000 928.000
29.00000 789.000
29.04000 754.000
29.08000 676.000
29.12000 686.000
29.16000 649.000
29.20000 636.000
29.24000 622.000
29.28000 630.000
29.32000 608.000
29.36000 688.000
29.40000 696.000
29.44000 708.000
29.48000 683.000
29.52000 801.000
29.56000 790.000
29.60000 850.000
29.64000 909.000
29.68000 1076.000
29.72000 1099.000
29.76000 1137.000
29.80000 1179.000
29.84000 1193.000
29.88000 1207.000
29.92000 1049.000
29.96000 1030.000
30.00000 904.000
30.04000 843.000
30.08000 787.000
30.12000 707.000
30.16000 691.000
30.20000 604.000
30.24000 528.000
30.28000 591.000
30.32000 536.000
30.36000 573.000
30.40000 504.000
30.44000 527.000
30.48000 511.000
30.52000 487.000
30.56000 523.000
30.60000 484.000
30.64000 462.000
30.68000 434.000
30.72000 483.000
30.76000 447.000
30.80000 435.000
30.84000 463.000
30.88000 433.000
30.92000 463.000
30.96000 441.000
31.00000 411.000
31.04000 482.000
31.08000 437.000
31.12000 456.000
31.16000 458.000
31.20000 496.000
31.24000 417.000
31.28000 419.000
31.32000 431.000
31.36000 411.000
31.40000 444.000
31.44000 417.000
31.48000 417.000
31.52000 412.000
31.56000 405.000
31.60000 435.000
31.64000 427.000
31.68000 409.000
31.72000 435.000
31.76000 435.000
31.80000 402.000
31.84000 430.000
31.88000 393.000
31.92000 473.000
31.96000 439.000
32.00000 474.000
32.04000 535.000
32.08000 604.000
32.12000 634.000
32.16000 765.000
32.20000 791.000
32.24000 776.000
32.28000 688.000
32.32000 563.000
32.36000 550.000
32.40000 505.000
32.44000 455.000
32.48000 404.000
32.52000 409.000
32.56000 423.000
32.60000 435.000
32.64000 356.000
32.68000 405.000
32.72000 401.000
32.76000 386.000
32.80000 381.000
32.84000 379.000
32.88000 412.000
32.92000 385.000
32.96000 381.000
33.00000 404.000
33.04000 428.000
33.08000 384.000
33.12000 414.000
33.16000 395.000
33.20000 428.000
33.24000 401.000
33.28000 462.000
33.32000 430.000
33.36000 437.000
33.40000 486.000
33.44000 458.000
33.48000 405.000
33.52000 435.000
33.56000 413.000
33.60000 408.000
33.64000 374.000
33.68000 403.000
33.72000 383.000
33.76000 325.000
33.80000 376.000
33.84000 362.000
33.88000 338.000
33.92000 364.000
33.96000 357.000
34.00000 306.000
34.04000 388.000
34.08000 338.000
34.12000 344.000
34.16000 333.000
34.20000 301.000
34.24000 352.000
34.28000 347.000
34.32000 355.000
34.36000 296.000
34.40000 284.000
34.44000 348.000
34.48000 327.000
34.52000 334.000
34.56000 341.000
34.60000 318.000
34.64000 313.000
34.68000 336.000
34.72000 330.000
34.76000 290.000
34.80000 316.000
34.84000 310.000
34.88000 292.000
34.92000 307.000
34.96000 314.000
35.00000 325.000
35.04000 317.000
35.08000 292.000
35.12000 285.000
35.16000 304.000
35.20000 343.000
35.24000 298.000
35.28000 279.000
35.32000 312.000
35.36000 324.000
35.40000 268.000
35.44000 287.000
35.48000 336.000
35.52000 290.000
35.56000 320.000
35.60000 299.000
35.64000 290.000
35.68000 333.000
35.72000 315.000
35.76000 283.000
35.80000 274.000
35.84000 292.000
35.88000 302.000
35.92000 294.000
35.96000 291.000
36.00000 264.000
36.04000 300.000
36.08000 296.000
36.12000 276.000
36.16000 300.000
36.20000 287.000
36.24000 282.000
36.28000 244.000
36.32000 293.000
36.36000 276.000
36.40000 307.000
36.44000 277.000
36.48000 286.000
36.52000 267.000
36.56000 294.000
36.60000 265.000
36.64000 293.000
36.68000 287.000
36.72000 280.000
36.76000 297.000
36.80000 288.000
36.84000 284.000
36.88000 273.000
36.92000 273.000
36.96000 273.000
37.00000 283.000
37.04000 289.000
37.08000 285.000
37.12000 252.000
37.16000 277.000
37.20000 247.000
37.24000 270.000
37.28000 304.000
37.32000 290.000
37.36000 291.000
37.40000 304.000
37.44000 254.000
37.48000 273.000
37.52000 266.000
37.56000 279.000
37.60000 265.000
37.64000 271.000
37.68000 267.000
37.72000 269.000
37.76000 303.000
37.80000 275.000
37.84000 263.000
37.88000 261.000
37.92000 256.000
37.96000 276.000
38.00000 305.000
38.04000 255.000
38.08000 278.000
38.12000 293.000
38.16000 285.000
38.20000 284.000
38.24000 291.000
38.28000 314.000
38.32000 307.000
38.36000 287.000
38.40000 313.000
38.44000 294.000
38.48000 320.000
38.52000 303.000
38.56000 315.000
38.60000 321.000
38.64000 306.000
38.68000 311.000
38.72000 315.000
38.76000 358.000
38.80000 365.000
38.84000 343.000
38.88000 407.000
38.92000 377.000
38.96000 387.000
39.00000 395.000
39.04000 418.000
39.08000 412.000
39.12000 380.000
39.16000 376.000
39.20000 365.000
39.24000 314.000
39.28000 312.000
39.32000 313.000
39.36000 268.000
39.40000 279.000
39.44000 284.000
39.48000 245.000
39.52000 288.000
39.56000 239.000
39.60000 275.000
39.64000 258.000
39.68000 239.000
39.72000 251.000
39.76000 227.000
39.80000 240.000
39.84000 270.000
39.88000 248.000
39.92000 212.000
39.96000 221.000
40.00000 234.000
40.04000 257.000
40.08000 234.000
40.12000 228.000
40.16000 243.000
40.20000 232.000
40.24000 207.000
40.28000 227.000
40.32000 239.000
40.36000 251.000
40.40000 245.000
40.44000 231.000
40.48000 233.000
40.52000 203.000
40.56000 229.000
40.60000 225.000
40.64000 240.000
40.68000 258.000
40.72000 249.000
40.76000 219.000
40.80000 214.000
40.84000 227.000
40.88000 233.000
40.92000 230.000
40.96000 278.000
41.00000 287.000
41.04000 295.000
41.08000 264.000
41.12000 274.000
41.16000 261.000
41.20000 240.000
41.24000 232.000
41.28000 246.000
41.32000 256.000
41.36000 243.000
41.40000 222.000
41.44000 237.000
41.48000 226.000
41.52000 235.000
41.56000 203.000
41.60000 214.000
41.64000 218.000
41.68000 223.000
41.72000 237.000
41.76000 195.000
41.80000 230.000
41.84000 232.000
41.88000 221.000
41.92000 229.000
41.96000 208.000
42.00000 247.000
42.04000 224.000
42.08000 217.000
42.12000 227.000
42.16000 225.000
42.20000 241.000
42.24000 251.000
42.28000 216.000
42.32000 268.000
42.36000 268.000
42.40000 258.000
42.44000 260.000
42.48000 259.000
42.52000 295.000
42.56000 273.000
42.60000 286.000
42.64000 257.000
42.68000 254.000
42.72000 289.000
42.76000 250.000
42.80000 289.000
42.84000 244.000
42.88000 237.000
42.92000 254.000
42.96000 209.000
43.00000 234.000
43.04000 246.000
43.08000 207.000
43.12000 232.000
43.16000 230.000
43.20000 228.000
43.24000 224.000
43.28000 256.000
43.32000 224.000
43.36000 226.000
43.40000 221.000
43.44000 207.000
43.48000 258.000
43.52000 255.000
43.56000 229.000
43.60000 306.000
43.64000 260.000
43.68000 273.000
43.72000 282.000
43.76000 250.000
43.80000 260.000
43.84000 251.000
43.88000 253.000
43.92000 236.000
43.96000 247.000
44.00000 239.000
44.04000 221.000
44.08000 215.000
44.12000 221.000
44.16000 216.000
44.20000 213.000
44.24000 221.000
44.28000 215.000
44.32000 258.000
44.36000 260.000
44.40000 242.000
44.44000 226.000
44.48000 212.000
44.52000 240.000
44.56000 223.000
44.60000 233.000
44.64000 240.000
44.68000 231.000
44.72000 221.000
44.76000 230.000
44.80000 255.000
44.84000 220.000
44.88000 258.000
44.92000 242.000
44.96000 192.000
45.00000 237.000
45.04000 226.000
45.08000 226.000
45.12000 223.000
45.16000 243.000
45.20000 247.000
45.24000 219.000
45.28000 229.000
45.32000 249.000
45.36000 218.000
45.40000 247.000
45.44000 233.000
45.48000 235.000
45.52000 231.000
45.56000 217.000
45.60000 265.000
45.64000 219.000
45.68000 250.000
45.72000 207.000
45.76000 212.000
45.80000 212.000
45.84000 230.000
45.88000 238.000
45.92000 226.000
45.96000 239.000
46.00000 211.000
46.04000 229.000
46.08000 236.000
46.12000 232.000
46.16000 223.000
46.20000 211.000
46.24000 218.000
46.28000 235.000
46.32000 243.000
46.36000 225.000
46.40000 208.000
46.44000 228.000
46.48000 250.000
46.52000 245.000
46.56000 213.000
46.60000 238.000
46.64000 214.000
46.68000 208.000
46.72000 246.000
46.76000 198.000
46.80000 234.000
46.84000 237.000
46.88000 206.000
46.92000 244.000
46.96000 230.000
47.00000 204.000
47.04000 225.000
47.08000 211.000
47.12000 206.000
47.16000 221.000
47.20000 251.000
47.24000 254.000
47.28000 206.000
47.32000 231.000
47.36000 235.000
47.40000 236.000
47.44000 219.000
47.48000 227.000
47.52000 212.000
47.56000 221.000
47.60000 177.000
47.64000 222.000
47.68000 255.000
47.72000 212.000
47.76000 248.000
47.80000 216.000
47.84000 235.000
47.88000 232.000
47.92000 189.000
47.96000 229.000
48.00000 237.000
48.04000 246.000
48.08000 230.000
48.12000 240.000
48.16000 210.000
48.20000 265.000
48.24000 280.000
48.28000 310.000
48.32000 374.000
48.36000 433.000
48.40000 526.000
48.44000 613.000
48.48000 670.000
48.52000 739.000
48.56000 714.000
48.60000 627.000
48.64000 520.000
48.68000 461.000
48.72000 430.000
48.76000 332.000
48.80000 293.000
48.84000 320.000
48.88000 272.000
48.92000 279.000
48.96000 241.000
49.00000 249.000
49.04000 219.000
49.08000 228.000
49.12000 229.000
49.16000 223.000
49.20000 229.000
49.24000 249.000
49.28000 237.000
49.32000 246.000
49.36000 231.000
49.40000 255.000
49.44000 239.000
49.48000 210.000
49.52000 260.000
49.56000 255.000
49.60000 256.000
49.64000 224.000
49.68000 225.000
49.72000 240.000
49.76000 263.000
49.80000 253.000
49.84000 247.000
49.88000 241.000
49.92000 228.000
49.96000 262.000
50.00000 246.000
50.04000 287.000
50.08000 259.000
50.12000 267.000
50.16000 284.000
50.20000 324.000
50.24000 327.000
50.28000 347.000
50.32000 356.000
50.36000 366.000
50.40000 384.000
50.44000 405.000
50.48000 370.000
50.52000 401.000
50.56000 345.000
50.60000 325.000
50.64000 337.000
50.68000 318.000
50.72000 327.000
50.76000 287.000
50.80000 336.000
50.84000 299.000
50.88000 274.000
50.92000 292.000
50.96000 266.000
51.00000 250.000
51.04000 250.000
51.08000 241.000
51.12000 233.000
51.16000 214.000
51.20000 238.000
51.24000 224.000
51.28000 221.000
51.32000 245.000
51.36000 224.000
51.40000 195.000
51.44000 204.000
51.48000 220.000
51.52000 212.000
51.56000 219.000
51.60000 221.000
51.64000 202.000
51.68000 227.000
51.72000 187.000
51.76000 216.000
51.80000 229.000
51.84000 220.000
51.88000 207.000
51.92000 197.000
51.96000 237.000
52.00000 195.000
52.04000 233.000
52.08000 219.000
52.12000 198.000
52.16000 176.000
52.20000 188.000
52.24000 188.000
52.28000 220.000
52.32000 209.000
52.36000 212.000
52.40000 212.000
52.44000 214.000
52.48000 210.000
52.52000 192.000
52.56000 222.000
52.60000 190.000
52.64000 221.000
52.68000 215.000
52.72000 189.000
52.76000 226.000
52.80000 216.000
52.84000 245.000
52.88000 224.000
52.92000 213.000
52.96000 232.000
53.00000 255.000
53.04000 247.000
53.08000 256.000
53.12000 251.000
53.16000 238.000
53.20000 241.000
53.24000 223.000
53.28000 209.000
53.32000 213.000
53.36000 209.000
53.40000 234.000
53.44000 191.000
53.48000 218.000
53.52000 207.000
53.56000 189.000
53.60000 206.000
53.64000 203.000
53.68000 179.000
53.72000 200.000
53.76000 207.000
53.80000 204.000
53.84000 223.000
53.88000 196.000
53.92000 214.000
53.96000 206.000
54.00000 206.000
54.04000 178.000
54.08000 204.000
54.12000 180.000
54.16000 193.000
54.20000 204.000
54.24000 201.000
54.28000 185.000
54.32000 180.000
54.36000 218.000
54.40000 181.000
54.44000 190.000
54.48000 187.000
54.52000 221.000
54.56000 167.000
54.60000 197.000
54.64000 201.000
54.68000 188.000
54.72000 213.000
54.76000 201.000
54.80000 235.000
54.84000 210.000
54.88000 197.000
54.92000 206.000
54.96000 234.000
55.00000 209.000
55.04000 225.000
55.08000 202.000
55.12000 198.000
55.16000 193.000
55.20000 192.000
55.24000 228.000
55.28000 236.000
55.32000 177.000
55.36000 181.000
55.40000 191.000
55.44000 193.000
55.48000 178.000
55.52000 199.000
55.56000 195.000
55.60000 190.000
55.64000 198.000
55.68000 188.000
55.72000 200.000
55.76000 168.000
55.80000 176.000
55.84000 204.000
55.88000 196.000
55.92000 169.000
55.96000 171.000
56.00000 208.000
56.04000 213.000
56.08000 183.000
56.12000 201.000
56.16000 190.000
56.20000 171.000
56.24000 181.000
56.28000 176.000
56.32000 201.000
56.36000 188.000
56.40000 180.000
56.44000 200.000
56.48000 177.000
56.52000 198.000
56.56000 189.000
56.60000 204.000
56.64000 181.000
56.68000 191.000
56.72000 192.000
56.76000 205.000
56.80000 184.000
56.84000 207.000
56.88000 202.000
56.92000 189.000
56.96000 206.000
57.00000 176.000
57.04000 211.000
57.08000 181.000
57.12000 214.000
57.16000 176.000
57.20000 175.000
57.24000 182.000
57.28000 181.000
57.32000 180.000
57.36000 180.000
57.40000 190.000
57.44000 191.000
57.48000 181.000
57.52000 181.000
57.56000 166.000
57.60000 184.000
57.64000 201.000
57.68000 174.000
57.72000 200.000
57.76000 170.000
57.80000 182.000
57.84000 183.000
57.88000 173.000
57.92000 203.000
57.96000 196.000
58.00000 176.000
58.04000 169.000
58.08000 176.000
58.12000 172.000
58.16000 170.000
58.20000 158.000
58.24000 172.000
58.28000 175.000
58.32000 179.000
58.36000 175.000
58.40000 192.000
58.44000 193.000
58.48000 203.000
58.52000 178.000
58.56000 161.000
58.60000 179.000
58.64000 172.000
58.68000 187.000
58.72000 188.000
58.76000 159.000
58.80000 178.000
58.84000 191.000
58.88000 173.000
58.92000 171.000
58.96000 196.000
59.00000 180.000
59.04000 176.000
59.08000 188.000
59.12000 188.000
59.16000 187.000
59.20000 188.000
59.24000 174.000
59.28000 168.000
59.32000 175.000
59.36000 200.000
59.40000 198.000
59.44000 177.000
59.48000 168.000
59.52000 177.000
59.56000 180.000
59.60000 170.000
59.64000 152.000
59.68000 166.000
59.72000 205.000
59.76000 168.000
59.80000 166.000
59.84000 183.000
59.88000 174.000
59.92000 175.000
59.96000 169.000
60.00000 162.000
60.04000 178.000
60.08000 173.000
60.12000 159.000
60.16000 186.000
60.20000 185.000
60.24000 172.000
60.28000 181.000
60.32000 148.000
60.36000 172.000
60.40000 172.000
60.44000 186.000
60.48000 180.000
60.52000 169.000
60.56000 170.000
60.60000 181.000
60.64000 170.000
60.68000 149.000
60.72000 188.000
60.76000 173.000
60.80000 164.000
60.84000 185.000
60.88000 194.000
60.92000 161.000
60.96000 154.000
61.00000 181.000
61.04000 195.000
61.08000 168.000
61.12000 177.000
61.16000 176.000
61.20000 173.000
61.24000 204.000
61.28000 202.000
61.32000 194.000
61.36000 166.000
61.40000 196.000
61.44000 208.000
61.48000 165.000
61.52000 179.000
61.56000 168.000
61.60000 192.000
61.64000 176.000
61.68000 179.000
61.72000 182.000
61.76000 170.000
61.80000 201.000
61.84000 182.000
61.88000 164.000
61.92000 186.000
61.96000 181.000
62.00000 199.000
62.04000 178.000
62.08000 206.000
62.12000 205.000
62.16000 155.000
62.20000 154.000
62.24000 155.000
62.28000 173.000
62.32000 173.000
62.36000 164.000
62.40000 161.000
62.44000 193.000
62.48000 194.000
62.52000 189.000
62.56000 164.000
62.60000 163.000
62.64000 160.000
62.68000 156.000
62.72000 166.000
62.76000 173.000
62.80000 171.000
62.84000 189.000
62.88000 155.000
62.92000 151.000
62.96000 201.000
63.00000 182.000
63.04000 158.000
63.08000 170.000
63.12000 172.000
63.16000 141.000
63.20000 193.000
63.24000 161.000
63.28000 182.000
63.32000 192.000
63.36000 175.000
63.40000 167.000
63.44000 168.000
63.48000 186.000
63.52000 182.000
63.56000 172.000
63.60000 157.000
63.64000 199.000
63.68000 166.000
63.72000 171.000
63.76000 164.000
63.80000 166.000
63.84000 162.000
63.88000 175.000
63.92000 157.000
63.96000 178.000
64.00000 158.000
64.04000 146.000
64.08000 162.000
64.12000 174.000
64.16000 187.000
64.20000 174.000
64.24000 176.000
64.28000 168.000
64.32000 144.000
64.36000 185.000
64.40000 174.000
64.44000 152.000
64.48000 163.000
64.52000 168.000
64.56000 176.000
64.60000 161.000
64.64000 170.000
64.68000 158.000
64.72000 166.000
64.76000 163.000
64.80000 143.000
64.84000 172.000
64.88000 165.000
64.92000 185.000
64.96000 194.000
65.00000 158.000
65.04000 165.000
65.08000 146.000
65.12000 151.000
65.16000 175.000
65.20000 185.000
65.24000 174.000
65.28000 152.000
65.32000 164.000
65.36000 173.000
65.40000 148.000
65.44000 178.000
65.48000 189.000
65.52000 181.000
65.56000 170.000
65.60000 185.000
65.64000 170.000
65.68000 177.000
65.72000 166.000
65.76000 171.000
65.80000 172.000
65.84000 152.000
65.88000 209.000
65.92000 196.000
65.96000 173.000
66.00000 154.000
66.04000 177.000
66.08000 197.000
66.12000 159.000
66.16000 166.000
66.20000 155.000
66.24000 176.000
66.28000 172.000
66.32000 176.000
66.36000 188.000
66.40000 150.000
66.44000 165.000
66.48000 154.000
66.52000 155.000
66.56000 196.000
66.60000 177.000
66.64000 165.000
66.68000 173.000
66.72000 175.000
66.76000 168.000
66.80000 172.000
66.84000 170.000
66.88000 183.000
66.92000 197.000
66.96000 201.000
67.00000 246.000
67.04000 229.000
67.08000 282.000
67.12000 323.000
67.16000 346.000
67.20000 352.000
67.24000 332.000
67.28000 326.000
67.32000 291.000
67.36000 283.000
67.40000 286.000
67.44000 241.000
67.48000 217.000
67.52000 222.000
67.56000 202.000
67.60000 189.000
67.64000 196.000
67.68000 179.000
67.72000 202.000
67.76000 181.000
67.80000 181.000
67.84000 174.000
67.88000 177.000
67.92000 173.000
67.96000 170.000
68.00000 193.000
68.04000 198.000
68.08000 203.000
68.12000 172.000
68.16000 188.000
68.20000 181.000
68.24000 184.000
68.28000 157.000
68.32000 169.000
68.36000 178.000
68.40000 193.000
68.44000 188.000
68.48000 209.000
68.52000 168.000
68.56000 176.000
68.60000 183.000
68.64000 158.000
68.68000 181.000
68.72000 200.000
68.76000 200.000
68.80000 207.000
68.84000 228.000
68.88000 252.000
68.92000 262.000
68.96000 295.000
69.00000 311.000
69.04000 332.000
69.08000 379.000
69.12000 362.000
69.16000 308.000
69.20000 337.000
69.24000 303.000
69.28000 292.000
69.32000 269.000
69.36000 244.000
69.40000 255.000
69.44000 235.000
69.48000 195.000
69.52000 197.000
69.56000 179.000
69.60000 170.000
69.64000 186.000
69.68000 174.000
69.72000 177.000
69.76000 193.000
69.80000 184.000
69.84000 189.000
69.88000 192.000
69.92000 174.000