File: XRD/25.xy
10.00000 941.000
10.04000 869.000
10.08000 781.000
10.12000 771.000
10.16000 713.000
10.20000 685.000
10.24000 715.000
10.28000 688.000
10.32000 697.000
10.36000 689.000
10.40000 680.000
10.44000 694.000
10.48000 700.000
10.52000 660.000
10.56000 667.000
10.60000 696.000
10.64000 699.000
10.68000 682.000
10.72000 665.000
10.76000 605.000
10.80000 662.000
10.84000 667.000
10.88000 674.000
10.92000 685.000
10.96000 637.000
11.00000 605.000
11.04000 630.000
11.08000 645.000
11.12000 628.000
11.16000 684.000
11.20000 676.000
11.24000 680.000
11.28000 641.000
11.32000 659.000
11.36000 612.000
11.40000 661.000
11.44000 624.000
11.48000 667.000
11.52000 628.000
11.56000 633.000
11.60000 605.000
11.64000 665.000
11.68000 669.000
11.72000 592.000
11.76000 608.000
11.80000 631.000
11.84000 608.000
11.88000 594.000
11.92000 681.000
11.96000 619.000
12.00000 613.000
12.04000 660.000
12.08000 624.000
12.12000 635.000
12.16000 680.000
12.20000 690.000
12.24000 693.000
12.28000 738.000
12.32000 726.000
12.36000 699.000
12.40000 768.000
12.44000 761.000
12.48000 809.000
12.52000 941.000
12.56000 1057.000
12.60000 1191.000
12.64000 1366.000
12.68000 1621.000
12.72000 1717.000
12.76000 1889.000
12.80000 2240.000
12.84000 2774.000
12.88000 2924.000
12.92000 2581.000
12.96000 2054.000
13.00000 1412.000
13.04000 1118.000
13.08000 921.000
13.12000 846.000
13.16000 863.000
13.20000 798.000
13.24000 825.000
13.28000 789.000
13.32000 864.000
13.36000 908.000
13.40000 994.000
13.44000 1023.000
13.48000 1057.000
13.52000 940.000
13.56000 893.000
13.60000 952.000
13.64000 954.000
13.68000 925.000
13.72000 974.000
13.76000 965.000
13.80000 1075.000
13.84000 1131.000
13.88000 1229.000
13.92000 1387.000
13.96000 1586.000
14.00000 1800.000
14.04000 2147.000
14.08000 2719.000
14.12000 3494.000
14.16000 5034.000
14.20000 7504.000
14.24000 11447.000
14.28000 17006.000
14.32000 21164.000
14.36000 19254.000
14.40000 13462.000
14.44000 8356.000
14.48000 5449.000
14.52000 3782.000
14.56000 3065.000
14.60000 2717.000
14.64000 2802.000
14.68000 3105.000
14.72000 3791.000
14.76000 5080.000
14.80000 6888.000
14.84000 7931.000
14.88000 7794.000
14.92000 6143.000
14.96000 4639.000
15.00000 3137.000
15.04000 2096.000
15.08000 1599.000
15.12000 1262.000
15.16000 1097.000
15.20000 926.000
15.24000 858.000
15.28000 797.000
15.32000 699.000
15.36000 719.000
15.40000 665.000
15.44000 644.000
15.48000 648.000
15.52000 624.000
15.56000 529.000
15.60000 589.000
15.64000 608.000
15.68000 509.000
15.72000 558.000
15.76000 537.000
15.80000 556.000
15.84000 528.000
15.88000 499.000
15.92000 505.000
15.96000 502.000
16.00000 519.000
16.04000 483.000
16.08000 489.000
16.12000 464.000
16.16000 506.000
16.20000 465.000
16.24000 463.000
16.28000 473.000
16.32000 485.000
16.36000 544.000
16.40000 478.000
16.44000 472.000
16.48000 478.000
16.52000 453.000
16.56000 464.000
16.60000 493.000
16.64000 473.000
16.68000 466.000
16.72000 470.000
16.76000 425.000
16.80000 478.000
16.84000 464.000
16.88000 441.000
16.92000 473.000
16.96000 451.000
17.00000 442.000
17.04000 490.000
17.08000 435.000
17.12000 489.000
17.16000 478.000
17.20000 477.000
17.24000 458.000
17.28000 463.000
17.32000 454.000
17.36000 445.000
17.40000 411.000
17.44000 462.000
17.48000 447.000
17.52000 473.000
17.56000 496.000
17.60000 423.000
17.64000 451.000
17.68000 460.000
17.72000 440.000
17.76000 459.000
17.80000 449.000
17.84000 447.000
17.88000 427.000
17.92000 457.000
17.96000 431.000
18.00000 450.000
18.04000 438.000
18.08000 427.000
18.12000 464.000
18.16000 399.000
18.20000 476.000
18.24000 454.000
18.28000 442.000
18.32000 412.000
18.36000 457.000
18.40000 429.000
18.44000 469.000
18.48000 432.000
18.52000 428.000
18.56000 392.000
18.60000 444.000
18.64000 436.000
18.68000 455.000
18.72000 476.000
18.76000 440.000
18.80000 442.000
18.84000 445.000
18.88000 458.000
18.92000 457.000
18.96000 415.000
19.00000 411.000
19.04000 441.000
19.08000 428.000
19.12000 466.000
19.16000 441.000
19.20000 467.000
19.24000 481.000
19.28000 464.000
19.32000 496.000
19.36000 468.000
19.40000 475.000
19.44000 443.000
19.48000 448.000
19.52000 463.000
19.56000 526.000
19.60000 511.000
19.64000 526.000
19.68000 604.000
19.72000 628.000
19.76000 657.000
19.80000 610.000
19.84000 595.000
19.88000 539.000
19.92000 542.000
19.96000 561.000
20.00000 549.000
20.04000 536.000
20.08000 537.000
20.12000 542.000
20.16000 528.000
20.20000 465.000
20.24000 462.000
20.28000 486.000
20.32000 475.000
20.36000 444.000
20.40000 426.000
20.44000 467.000
20.48000 429.000
20.52000 450.000
20.56000 444.000
20.60000 453.000
20.64000 480.000
20.68000 476.000
20.72000 463.000
20.76000 477.000
20.80000 483.000
20.84000 449.000
20.88000 522.000
20.92000 459.000
20.96000 489.000
21.00000 447.000
21.04000 505.000
21.08000 462.000
21.12000 485.000
21.16000 466.000
21.20000 491.000
21.24000 493.000
21.28000 477.000
21.32000 474.000
21.36000 508.000
21.40000 480.000
21.44000 509.000
21.48000 517.000
21.52000 488.000
21.56000 485.000
21.60000 494.000
21.64000 467.000
21.68000 452.000
21.72000 475.000
21.76000 480.000
21.80000 487.000
21.84000 462.000
21.88000 481.000
21.92000 497.000
21.96000 518.000
22.00000 515.000
22.04000 489.000
22.08000 479.000
22.12000 502.000
22.16000 506.000
22.20000 473.000
22.24000 438.000
22.28000 514.000
22.32000 470.000
22.36000 473.000
22.40000 469.000
22.44000 487.000
22.48000 459.000
22.52000 490.000
22.56000 473.000
22.60000 489.000
22.64000 512.000
22.68000 493.000
22.72000 455.000
22.76000 507.000
22.80000 496.000
22.84000 529.000
22.88000 483.000
22.92000 486.000
22.96000 473.000
23.00000 513.000
23.04000 482.000
23.08000 514.000
23.12000 534.000
23.16000 522.000
23.20000 482.000
23.24000 513.000
23.28000 499.000
23.32000 459.000
23.36000 518.000
23.40000 508.000
23.44000 497.000
23.48000 490.000
23.52000 507.000
23.56000 524.000
23.60000 469.000
23.64000 515.000
23.68000 479.000
23.72000 496.000
23.76000 509.000
23.80000 490.000
23.84000 503.000
23.88000 534.000
23.92000 508.000
23.96000 533.000
24.00000 546.000
24.04000 543.000
24.08000 514.000
24.12000 534.000
24.16000 536.000
24.20000 524.000
24.24000 492.000
24.28000 527.000
24.32000 532.000
24.36000 568.000
24.40000 540.000
24.44000 517.000
24.48000 576.000
24.52000 580.000
24.56000 643.000
24.60000 669.000
24.64000 699.000
24.68000 749.000
24.72000 758.000
24.76000 704.000
24.80000 664.000
24.84000 639.000
24.88000 625.000
24.92000 571.000
24.96000 585.000
25.00000 564.000
25.04000 532.000
25.08000 571.000
25.12000 501.000
25.16000 575.000
25.20000 575.000
25.24000 595.000
25.28000 580.000
25.32000 650.000
25.36000 674.000
25.40000 693.000
25.44000 711.000
25.48000 725.000
25.52000 767.000
25.56000 908.000
25.60000 1056.000
25.64000 1173.000
25.68000 1531.000
25.72000 1643.000
25.76000 1862.000
25.80000 1770.000
25.84000 1615.000
25.88000 1531.000
25.92000 1229.000
25.96000 1008.000
26.00000 832.000
26.04000 733.000
26.08000 638.000
26.12000 611.000
26.16000 587.000
26.20000 582.000
26.24000 536.000
26.28000 595.000
26.32000 518.000
26.36000 615.000
26.40000 593.000
26.44000 616.000
26.48000 582.000
26.52000 597.000
26.56000 540.000
26.60000 516.000
26.64000 519.000
26.68000 494.000
26.72000 525.000
26.76000 510.000
26.80000 489.000
26.84000 475.000
26.88000 524.000
26.92000 519.000
26.96000 510.000
27.00000 496.000
27.04000 491.000
27.08000 506.000
27.12000 584.000
27.16000 511.000
27.20000 485.000
27.24000 507.000
27.28000 499.000
27.32000 521.000
27.36000 482.000
27.40000 466.000
27.44000 504.000
27.48000 496.000
27.52000 523.000
27.56000 551.000
27.60000 529.000
27.64000 506.000
27.68000 505.000
27.72000 520.000
27.76000 521.000
27.80000 535.000
27.84000 492.000
27.88000 492.000
27.92000 591.000
27.96000 511.000
28.00000 524.000
28.04000 541.000
28.08000 582.000
28.12000 575.000
28.16000 557.000
28.20000 557.000
28.24000 548.000
28.28000 556.000
28.32000 537.000
28.36000 581.000
28.40000 597.000
28.44000 611.000
28.48000 706.000
28.52000 893.000
28.56000 1021.000
28.60000 1311.000
28.64000 1872.000
28.68000 2340.000
28.72000 2983.000
28.76000 3087.000
28.80000 2805.000
28.84000 2193.000
28.88000 1687.000
28.92000 1241.000
28.96000 947.000
29.00000 800.000
29.04000 724.000
29.08000 673.000
29.12000 608.000
29.16000 593.000
29.20000 624.000
29.24000 592.000
29.28000 584.000
29.32000 585.000
29.36000 592.000
29.40000 623.000
29.44000 628.000
29.48000 665.000
29.52000 723.000
29.56000 827.000
29.60000 855.000
29.64000 983.000
29.68000 1206.000
29.72000 1413.000
29.76000 1792.000
29.80000 1907.000
29.84000 1912.000
29.88000 1945.000
29.92000 1726.000
29.96000 1434.000
30.00000 1149.000
30.04000 1020.000
30.08000 800.000
30.12000 748.000
30.16000 657.000
30.20000 595.000
30.24000 604.000
30.28000 563.000
30.32000 488.000
30.36000 494.000
30.40000 544.000
30.44000 484.000
30.48000 468.000
30.52000 473.000
30.56000 474.000
30.60000 469.000
30.64000 474.000
30.68000 426.000
30.72000 443.000
30.76000 407.000
30.80000 434.000
30.84000 447.000
30.88000 453.000
30.92000 426.000
30.96000 462.000
31.00000 437.000
31.04000 434.000
31.08000 401.000
31.12000 389.000
31.16000 398.000
31.20000 398.000
31.24000 408.000
31.28000 402.000
31.32000 433.000
31.36000 472.000
31.40000 424.000
31.44000 448.000
31.48000 432.000
31.52000 393.000
31.56000 391.000
31.60000 441.000
31.64000 401.000
31.68000 385.000
31.72000 442.000
31.76000 439.000
31.80000 448.000
31.84000 429.000
31.88000 425.000
31.92000 414.000
31.96000 443.000
32.00000 382.000
32.04000 412.000
32.08000 483.000
32.12000 483.000
32.16000 587.000
32.20000 553.000
32.24000 539.000
32.28000 536.000
32.32000 480.000
32.36000 465.000
32.40000 435.000
32.44000 432.000
32.48000 404.000
32.52000 378.000
32.56000 405.000
32.60000 428.000
32.64000 379.000
32.68000 360.000
32.72000 365.000
32.76000 410.000
32.80000 397.000
32.84000 354.000
32.88000 353.000
32.92000 376.000
32.96000 385.000
33.00000 339.000
33.04000 393.000
33.08000 342.000
33.12000 391.000
33.16000 410.000
33.20000 417.000
33.24000 411.000
33.28000 437.000
33.32000 520.000
33.36000 516.000
33.40000 554.000
33.44000 575.000
33.48000 529.000
33.52000 518.000
33.56000 494.000
33.60000 466.000
33.64000 419.000
33.68000 370.000
33.72000 377.000
33.76000 360.000
33.80000 358.000
33.84000 352.000
33.88000 354.000
33.92000 332.000
33.96000 305.000
34.00000 341.000
34.04000 321.000
34.08000 333.000
34.12000 321.000
34.16000 349.000
34.20000 347.000
34.24000 342.000
34.28000 389.000
34.32000 368.000
34.36000 336.000
34.40000 324.000
34.44000 366.000
34.48000 297.000
34.52000 338.000
34.56000 329.000
34.60000 321.000
34.64000 303.000
34.68000 326.000
34.72000 337.000
34.76000 307.000
34.80000 338.000
34.84000 320.000
34.88000 323.000
34.92000 301.000
34.96000 314.000
35.00000 342.000
35.04000 324.000
35.08000 317.000
35.12000 326.000
35.16000 289.000
35.20000 297.000
35.24000 303.000
35.28000 309.000
35.32000 294.000
35.36000 306.000
35.40000 306.000
35.44000 315.000
35.48000 302.000
35.52000 295.000
35.56000 303.000
35.60000 275.000
35.64000 291.000
35.68000 304.000
35.72000 276.000
35.76000 294.000
35.80000 318.000
35.84000 300.000
35.88000 302.000
35.92000 310.000
35.96000 280.000
36.00000 297.000
36.04000 293.000
36.08000 297.000
36.12000 250.000
36.16000 294.000
36.20000 277.000
36.24000 274.000
36.28000 248.000
36.32000 298.000
36.36000 264.000
36.40000 281.000
36.44000 253.000
36.48000 269.000
36.52000 257.000
36.56000 289.000
36.60000 289.000
36.64000 266.000
36.68000 301.000
36.72000 301.000
36.76000 276.000
36.80000 302.000
36.84000 326.000
36.88000 269.000
36.92000 296.000
36.96000 252.000
37.00000 310.000
37.04000 261.000
37.08000 237.000
37.12000 288.000
37.16000 287.000
37.20000 275.000
37.24000 286.000
37.28000 299.000
37.32000 268.000
37.36000 269.000
37.40000 265.000
37.44000 259.000
37.48000 294.000
37.52000 276.000
37.56000 258.000
37.60000 269.000
37.64000 259.000
37.68000 268.000
37.72000 277.000
37.76000 259.000
37.80000 261.000
37.84000 275.000
37.88000 241.000
37.92000 294.000
37.96000 236.000
38.00000 268.000
38.04000 256.000
38.08000 259.000
38.12000 251.000
38.16000 267.000
38.20000 281.000
38.24000 234.000
38.28000 267.000
38.32000 249.000
38.36000 282.000
38.40000 269.000
38.44000 275.000
38.48000 276.000
38.52000 272.000
38.56000 250.000
38.60000 272.000
38.64000 283.000
38.68000 300.000
38.72000 293.000
38.76000 301.000
38.80000 362.000
38.84000 373.000
38.88000 404.000
38.92000 454.000
38.96000 485.000
39.00000 501.000
39.04000 470.000
39.08000 511.000
39.12000 463.000
39.16000 400.000
39.20000 418.000
39.24000 362.000
39.28000 321.000
39.32000 301.000
39.36000 292.000
39.40000 257.000
39.44000 241.000
39.48000 275.000
39.52000 247.000
39.56000 244.000
39.60000 241.000
39.64000 227.000
39.68000 244.000
39.72000 227.000
39.76000 243.000
39.80000 241.000
39.84000 250.000
39.88000 243.000
39.92000 235.000
39.96000 234.000
40.00000 245.000
40.04000 248.000
40.08000 220.000
40.12000 244.000
40.16000 227.000
40.20000 247.000
40.24000 244.000
40.28000 236.000
40.32000 248.000
40.36000 224.000
40.40000 229.000
40.44000 237.000
40.48000 216.000
40.52000 238.000
40.56000 223.000
40.60000 270.000
40.64000 245.000
40.68000 250.000
40.72000 247.000
40.76000 241.000
40.80000 270.000
40.84000 233.000
40.88000 245.000
40.92000 221.000
40.96000 233.000
41.00000 221.000
41.04000 230.000
41.08000 240.000
41.12000 249.000
41.16000 231.000
41.20000 221.000
41.24000 225.000
41.28000 230.000
41.32000 241.000
41.36000 264.000
41.40000 227.000
41.44000 206.000
41.48000 212.000
41.52000 262.000
41.56000 236.000
41.60000 240.000
41.64000 240.000
41.68000 225.000
41.72000 235.000
41.76000 219.000
41.80000 214.000
41.84000 231.000
41.88000 229.000
41.92000 219.000
41.96000 242.000
42.00000 251.000
42.04000 241.000
42.08000 242.000
42.12000 231.000
42.16000 216.000
42.20000 253.000
42.24000 242.000
42.28000 232.000
42.32000 245.000
42.36000 275.000
42.40000 263.000
42.44000 328.000
42.48000 326.000
42.52000 388.000
42.56000 362.000
42.60000 414.000
42.64000 445.000
42.68000 405.000
42.72000 443.000
42.76000 387.000
42.80000 371.000
42.84000 338.000
42.88000 332.000
42.92000 279.000
42.96000 300.000
43.00000 257.000
43.04000 262.000
43.08000 251.000
43.12000 251.000
43.16000 248.000
43.20000 249.000
43.24000 244.000
43.28000 237.000
43.32000 291.000
43.36000 210.000
43.40000 255.000
43.44000 236.000
43.48000 236.000
43.52000 267.000
43.56000 242.000
43.60000 239.000
43.64000 233.000
43.68000 243.000
43.72000 288.000
43.76000 272.000
43.80000 267.000
43.84000 258.000
43.88000 299.000
43.92000 263.000
43.96000 263.000
44.00000 259.000
44.04000 254.000
44.08000 243.000
44.12000 232.000
44.16000 247.000
44.20000 263.000
44.24000 231.000
44.28000 241.000
44.32000 222.000
44.36000 241.000
44.40000 240.000
44.44000 258.000
44.48000 235.000
44.52000 250.000
44.56000 238.000
44.60000 228.000
44.64000 251.000
44.68000 267.000
44.72000 252.000
44.76000 277.000
44.80000 281.000
44.84000 268.000
44.88000 268.000
44.92000 235.000
44.96000 260.000
45.00000 241.000
45.04000 261.000
45.08000 267.000
45.12000 260.000
45.16000 264.000
45.20000 283.000
45.24000 301.000
45.28000 330.000
45.32000 310.000
45.36000 314.000
45.40000 310.000
45.44000 295.000
45.48000 308.000
45.52000 282.000
45.56000 270.000
45.60000 250.000
45.64000 242.000
45.68000 235.000
45.72000 239.000
45.76000 226.000
45.80000 242.000
45.84000 248.000
45.88000 214.000
45.92000 217.000
45.96000 251.000
46.00000 212.000
46.04000 229.000
46.08000 211.000
46.12000 220.000
46.16000 269.000
46.20000 197.000
46.24000 222.000
46.28000 214.000
46.32000 225.000
46.36000 216.000
46.40000 241.000
46.44000 214.000
46.48000 207.000
46.52000 212.000
46.56000 230.000
46.60000 211.000
46.64000 201.000
46.68000 210.000
46.72000 219.000
46.76000 216.000
46.80000 217.000
46.84000 220.000
46.88000 220.000
46.92000 208.000
46.96000 231.000
47.00000 221.000
47.04000 223.000
47.08000 206.000
47.12000 223.000
47.16000 200.000
47.20000 243.000
47.24000 227.000
47.28000 243.000
47.32000 214.000
47.36000 216.000
47.40000 214.000
47.44000 231.000
47.48000 216.000
47.52000 204.000
47.56000 223.000
47.60000 202.000
47.64000 225.000
47.68000 215.000
47.72000 205.000
47.76000 203.000
47.80000 239.000
47.84000 216.000
47.88000 246.000
47.92000 230.000
47.96000 216.000
48.00000 209.000
48.04000 233.000
48.08000 230.000
48.12000 212.000
48.16000 230.000
48.20000 239.000
48.24000 235.000
48.28000 257.000
48.32000 270.000
48.36000 284.000
48.40000 300.000
48.44000 338.000
48.48000 375.000
48.52000 369.000
48.56000 384.000
48.60000 357.000
48.64000 363.000
48.68000 352.000
48.72000 311.000
48.76000 279.000
48.80000 289.000
48.84000 241.000
48.88000 248.000
48.92000 263.000
48.96000 224.000
49.00000 222.000
49.04000 226.000
49.08000 228.000
49.12000 211.000
49.16000 226.000
49.20000 236.000
49.24000 245.000
49.28000 224.000
49.32000 236.000
49.36000 225.000
49.40000 230.000
49.44000 240.000
49.48000 214.000
49.52000 215.000
49.56000 224.000
49.60000 227.000
49.64000 206.000
49.68000 229.000
49.72000 215.000
49.76000 223.000
49.80000 232.000
49.84000 239.000
49.88000 227.000
49.92000 237.000
49.96000 257.000
50.00000 249.000
50.04000 251.000
50.08000 248.000
50.12000 256.000
50.16000 277.000
50.20000 324.000
50.24000 315.000
50.28000 351.000
50.32000 389.000
50.36000 441.000
50.40000 434.000
50.44000 474.000
50.48000 454.000
50.52000 459.000
50.56000 437.000
50.60000 433.000
50.64000 413.000
50.68000 350.000
50.72000 342.000
50.76000 293.000
50.80000 286.000
50.84000 262.000
50.88000 261.000
50.92000 266.000
50.96000 257.000
51.00000 234.000
51.04000 216.000
51.08000 240.000
51.12000 243.000
51.16000 222.000
51.20000 235.000
51.24000 236.000
51.28000 223.000
51.32000 238.000
51.36000 218.000
51.40000 212.000
51.44000 229.000
51.48000 216.000
51.52000 201.000
51.56000 219.000
51.60000 225.000
51.64000 223.000
51.68000 210.000
51.72000 232.000
51.76000 229.000
51.80000 218.000
51.84000 192.000
51.88000 200.000
51.92000 219.000
51.96000 229.000
52.00000 211.000
52.04000 201.000
52.08000 189.000
52.12000 182.000
52.16000 213.000
52.20000 208.000
52.24000 227.000
52.28000 217.000
52.32000 201.000
52.36000 202.000
52.40000 209.000
52.44000 199.000
52.48000 239.000
52.52000 200.000
52.56000 200.000
52.60000 212.000
52.64000 202.000
52.68000 230.000
52.72000 231.000
52.76000 215.000
52.80000 211.000
52.84000 221.000
52.88000 232.000
52.92000 235.000
52.96000 259.000
53.00000 232.000
53.04000 248.000
53.08000 226.000
53.12000 244.000
53.16000 249.000
53.20000 212.000
53.24000 191.000
53.28000 198.000
53.32000 206.000
53.36000 202.000
53.40000 234.000
53.44000 199.000
53.48000 199.000
53.52000 217.000
53.56000 181.000
53.60000 202.000
53.64000 186.000
53.68000 179.000
53.72000 195.000
53.76000 211.000
53.80000 189.000
53.84000 214.000
53.88000 215.000
53.92000 174.000
53.96000 191.000
54.00000 172.000
54.04000 197.000
54.08000 192.000
54.12000 210.000
54.16000 245.000
54.20000 212.000
54.24000 190.000
54.28000 205.000
54.32000 185.000
54.36000 211.000
54.40000 206.000
54.44000 200.000
54.48000 218.000
54.52000 217.000
54.56000 207.000
54.60000 240.000
54.64000 180.000
54.68000 218.000
54.72000 221.000
54.76000 223.000
54.80000 208.000
54.84000 245.000
54.88000 202.000
54.92000 230.000
54.96000 201.000
55.00000 208.000
55.04000 220.000
55.08000 204.000
55.12000 223.000
55.16000 195.000
55.20000 219.000
55.24000 211.000
55.28000 197.000
55.32000 232.000
55.36000 195.000
55.40000 187.000
55.44000 214.000
55.48000 192.000
55.52000 210.000
55.56000 182.000
55.60000 205.000
55.64000 191.000
55.68000 201.000
55.72000 180.000
55.76000 183.000
55.80000 200.000
55.84000 175.000
55.88000 196.000
55.92000 162.000
55.96000 177.000
56.00000 184.000
56.04000 195.000
56.08000 187.000
56.12000 193.000
56.16000 177.000
56.20000 199.000
56.24000 195.000
56.28000 162.000
56.32000 196.000
56.36000 169.000
56.40000 181.000
56.44000 195.000
56.48000 161.000
56.52000 194.000
56.56000 177.000
56.60000 178.000
56.64000 175.000
56.68000 202.000
56.72000 186.000
56.76000 205.000
56.80000 214.000
56.84000 190.000
56.88000 195.000
56.92000 206.000
56.96000 212.000
57.00000 203.000
57.04000 214.000
57.08000 230.000
57.12000 212.000
57.16000 215.000
57.20000 185.000
57.24000 195.000
57.28000 178.000
57.32000 211.000
57.36000 172.000
57.40000 210.000
57.44000 178.000
57.48000 197.000
57.52000 203.000
57.56000 183.000
57.60000 153.000
57.64000 191.000
57.68000 176.000
57.72000 175.000
57.76000 194.000
57.80000 168.000
57.84000 204.000
57.88000 176.000
57.92000 180.000
57.96000 176.000
58.00000 155.000
58.04000 181.000
58.08000 170.000
58.12000 152.000
58.16000 185.000
58.20000 164.000
58.24000 166.000
58.28000 185.000
58.32000 161.000
58.36000 167.000
58.40000 181.000
58.44000 196.000
58.48000 181.000
58.52000 174.000
58.56000 159.000
58.60000 209.000
58.64000 173.000
58.68000 150.000
58.72000 151.000
58.76000 181.000
58.80000 163.000
58.84000 169.000
58.88000 166.000
58.92000 176.000
58.96000 179.000
59.00000 181.000
59.04000 167.000
59.08000 178.000
59.12000 162.000
59.16000 164.000
59.20000 159.000
59.24000 175.000
59.28000 183.000
59.32000 166.000
59.36000 190.000
59.40000 151.000
59.44000 160.000
59.48000 167.000
59.52000 164.000
59.56000 176.000
59.60000 181.000
59.64000 172.000
59.68000 177.000
59.72000 180.000
59.76000 180.000
59.80000 156.000
59.84000 179.000
59.88000 170.000
59.92000 162.000
59.96000 186.000
60.00000 172.000
60.04000 161.000
60.08000 172.000
60.12000 174.000
60.16000 163.000
60.20000 173.000
60.24000 153.000
60.28000 202.000
60.32000 142.000
60.36000 180.000
60.40000 142.000
60.44000 166.000
60.48000 179.000
60.52000 196.000
60.56000 168.000
60.60000 162.000
60.64000 183.000
60.68000 187.000
60.72000 167.000
60.76000 167.000
60.80000 164.000
60.84000 176.000
60.88000 164.000
60.92000 183.000
60.96000 187.000
61.00000 165.000
61.04000 159.000
61.08000 170.000
61.12000 155.000
61.16000 159.000
61.20000 173.000
61.24000 182.000
61.28000 167.000
61.32000 180.000
61.36000 178.000
61.40000 175.000
61.44000 148.000
61.48000 170.000
61.52000 173.000
61.56000 188.000
61.60000 178.000
61.64000 167.000
61.68000 194.000
61.72000 182.000
61.76000 169.000
61.80000 145.000
61.84000 180.000
61.88000 152.000
61.92000 171.000
61.96000 162.000
62.00000 185.000
62.04000 167.000
62.08000 181.000
62.12000 175.000
62.16000 172.000
62.20000 169.000
62.24000 182.000
62.28000 156.000
62.32000 173.000
62.36000 178.000
62.40000 152.000
62.44000 165.000
62.48000 173.000
62.52000 164.000
62.56000 190.000
62.60000 155.000
62.64000 188.000
62.68000 154.000
62.72000 170.000
62.76000 181.000
62.80000 178.000
62.84000 151.000
62.88000 131.000
62.92000 171.000
62.96000 166.000
63.00000 154.000
63.04000 158.000
63.08000 179.000
63.12000 172.000
63.16000 181.000
63.20000 157.000
63.24000 174.000
63.28000 179.000
63.32000 177.000
63.36000 149.000
63.40000 176.000
63.44000 168.000
63.48000 160.000
63.52000 168.000
63.56000 148.000
63.60000 181.000
63.64000 167.000
63.68000 170.000
63.72000 158.000
63.76000 187.000
63.80000 172.000
63.84000 161.000
63.88000 178.000
63.92000 164.000
63.96000 169.000
64.00000 155.000
64.04000 172.000
64.08000 170.000
64.12000 155.000
64.16000 176.000
64.20000 171.000
64.24000 165.000
64.28000 166.000
64.32000 162.000
64.36000 158.000
64.40000 163.000
64.44000 152.000
64.48000 155.000
64.52000 162.000
64.56000 170.000
64.60000 158.000
64.64000 154.000
64.68000 171.000
64.72000 183.000
64.76000 163.000
64.80000 155.000
64.84000 181.000
64.88000 146.000
64.92000 163.000
64.96000 144.000
65.00000 159.000
65.04000 182.000
65.08000 156.000
65.12000 148.000
65.16000 182.000
65.20000 151.000
65.24000 174.000
65.28000 152.000
65.32000 150.000
65.36000 168.000
65.40000 170.000
65.44000 157.000
65.48000 163.000
65.52000 189.000
65.56000 172.000
65.60000 157.000
65.64000 153.000
65.68000 168.000
65.72000 158.000
65.76000 152.000
65.80000 170.000
65.84000 169.000
65.88000 182.000
65.92000 170.000
65.96000 153.000
66.00000 149.000
66.04000 153.000
66.08000 145.000
66.12000 161.000
66.16000 170.000
66.20000 135.000
66.24000 148.000
66.28000 165.000
66.32000 180.000
66.36000 179.000
66.40000 159.000
66.44000 176.000
66.48000 140.000
66.52000 151.000
66.56000 159.000
66.60000 139.000
66.64000 167.000
66.68000 162.000
66.72000 182.000
66.76000 189.000
66.80000 154.000
66.84000 173.000
66.88000 189.000
66.92000 204.000
66.96000 196.000
67.00000 189.000
67.04000 209.000
67.08000 202.000
67.12000 255.000
67.16000 257.000
67.20000 251.000
67.24000 259.000
67.28000 241.000
67.32000 254.000
67.36000 272.000
67.40000 234.000
67.44000 259.000
67.48000 206.000
67.52000 204.000
67.56000 197.000
67.60000 219.000
67.64000 170.000
67.68000 200.000
67.72000 209.000
67.76000 179.000
67.80000 180.000
67.84000 183.000
67.88000 178.000
67.92000 186.000
67.96000 167.000
68.00000 166.000
68.04000 170.000
68.08000 203.000
68.12000 173.000
68.16000 176.000
68.20000 218.000
68.24000 176.000
68.28000 183.000
68.32000 179.000
68.36000 166.000
68.40000 173.000
68.44000 186.000
68.48000 169.000
68.52000 180.000
68.56000 156.000
68.60000 191.000
68.64000 175.000
68.68000 163.000
68.72000 155.000
68.76000 197.000
68.80000 179.000
68.84000 186.000
68.88000 182.000
68.92000 198.000
68.96000 248.000
69.00000 259.000
69.04000 239.000
69.08000 266.000
69.12000 266.000
69.16000 262.000
69.20000 234.000
69.24000 217.000
69.28000 224.000
69.32000 231.000
69.36000 232.000
69.40000 213.000
69.44000 210.000
69.48000 189.000
69.52000 209.000
69.56000 208.000
69.60000 198.000
69.64000 158.000
69.68000 188.000
69.72000 209.000
69.76000 183.000
69.80000 183.000
69.84000 176.000
69.88000 162.000
69.92000 165.000