File: XRD/26.xy
5.00000 605.000
5.04000 611.000
5.08000 576.000
5.12000 599.000
5.16000 604.000
5.20000 564.000
5.24000 595.000
5.28000 602.000
5.32000 517.000
5.36000 600.000
5.40000 586.000
5.44000 598.000
5.48000 562.000
5.52000 604.000
5.56000 571.000
5.60000 545.000
5.64000 541.000
5.68000 498.000
5.72000 580.000
5.76000 530.000
5.80000 527.000
5.84000 542.000
5.88000 514.000
5.92000 515.000
5.96000 501.000
6.00000 535.000
6.04000 489.000
6.08000 513.000
6.12000 480.000
6.16000 507.000
6.20000 475.000
6.24000 495.000
6.28000 495.000
6.32000 508.000
6.36000 482.000
6.40000 481.000
6.44000 478.000
6.48000 483.000
6.52000 438.000
6.56000 452.000
6.60000 495.000
6.64000 459.000
6.68000 460.000
6.72000 480.000
6.76000 465.000
6.80000 474.000
6.84000 475.000
6.88000 407.000
6.92000 423.000
6.96000 482.000
7.00000 435.000
7.04000 461.000
7.08000 436.000
7.12000 411.000
7.16000 434.000
7.20000 444.000
7.24000 397.000
7.28000 454.000
7.32000 427.000
7.36000 399.000
7.40000 440.000
7.44000 381.000
7.48000 445.000
7.52000 421.000
7.56000 377.000
7.60000 401.000
7.64000 378.000
7.68000 407.000
7.72000 406.000
7.76000 404.000
7.80000 406.000
7.84000 409.000
7.88000 386.000
7.92000 384.000
7.96000 378.000
8.00000 393.000
8.04000 406.000
8.08000 395.000
8.12000 397.000
8.16000 395.000
8.20000 357.000
8.24000 396.000
8.28000 365.000
8.32000 373.000
8.36000 353.000
8.40000 373.000
8.44000 334.000
8.48000 346.000
8.52000 393.000
8.56000 382.000
8.60000 366.000
8.64000 316.000
8.68000 390.000
8.72000 318.000
8.76000 377.000
8.80000 327.000
8.84000 332.000
8.88000 340.000
8.92000 360.000
8.96000 328.000
9.00000 314.000
9.04000 355.000
9.08000 345.000
9.12000 365.000
9.16000 339.000
9.20000 378.000
9.24000 320.000
9.28000 345.000
9.32000 323.000
9.36000 324.000
9.40000 351.000
9.44000 313.000
9.48000 322.000
9.52000 321.000
9.56000 355.000
9.60000 303.000
9.64000 299.000
9.68000 328.000
9.72000 335.000
9.76000 307.000
9.80000 300.000
9.84000 329.000
9.88000 299.000
9.92000 315.000
9.96000 311.000
10.00000 317.000
10.04000 309.000
10.08000 308.000
10.12000 271.000
10.16000 307.000
10.20000 305.000
10.24000 318.000
10.28000 303.000
10.32000 327.000
10.36000 304.000
10.40000 280.000
10.44000 269.000
10.48000 279.000
10.52000 276.000
10.56000 302.000
10.60000 285.000
10.64000 276.000
10.68000 297.000
10.72000 283.000
10.76000 306.000
10.80000 309.000
10.84000 280.000
10.88000 259.000
10.92000 242.000
10.96000 251.000
11.00000 275.000
11.04000 298.000
11.08000 278.000
11.12000 286.000
11.16000 293.000
11.20000 272.000
11.24000 302.000
11.28000 273.000
11.32000 298.000
11.36000 270.000
11.40000 262.000
11.44000 292.000
11.48000 255.000
11.52000 239.000
11.56000 280.000
11.60000 268.000
11.64000 265.000
11.68000 304.000
11.72000 298.000
11.76000 281.000
11.80000 289.000
11.84000 276.000
11.88000 299.000
11.92000 287.000
11.96000 314.000
12.00000 279.000
12.04000 326.000
12.08000 284.000
12.12000 305.000
12.16000 308.000
12.20000 275.000
12.24000 298.000
12.28000 314.000
12.32000 317.000
12.36000 318.000
12.40000 293.000
12.44000 358.000
12.48000 332.000
12.52000 335.000
12.56000 290.000
12.60000 376.000
12.64000 378.000
12.68000 364.000
12.72000 395.000
12.76000 446.000
12.80000 450.000
12.84000 423.000
12.88000 423.000
12.92000 429.000
12.96000 375.000
13.00000 402.000
13.04000 423.000
13.08000 445.000
13.12000 446.000
13.16000 409.000
13.20000 453.000
13.24000 446.000
13.28000 468.000
13.32000 487.000
13.36000 581.000
13.40000 573.000
13.44000 629.000
13.48000 761.000
13.52000 821.000
13.56000 1008.000
13.60000 935.000
13.64000 920.000
13.68000 1070.000
13.72000 1131.000
13.76000 1221.000
13.80000 1436.000
13.84000 1754.000
13.88000 2131.000
13.92000 2926.000
13.96000 3816.000
14.00000 5372.000
14.04000 7903.000
14.08000 12248.000
14.12000 18235.000
14.16000 25085.000
14.20000 24392.000
14.24000 16220.000
14.28000 8473.000
14.32000 4170.000
14.36000 2453.000
14.40000 1510.000
14.44000 1007.000
14.48000 766.000
14.52000 694.000
14.56000 540.000
14.60000 474.000
14.64000 468.000
14.68000 418.000
14.72000 365.000
14.76000 392.000
14.80000 379.000
14.84000 345.000
14.88000 331.000
14.92000 318.000
14.96000 351.000
15.00000 315.000
15.04000 314.000
15.08000 315.000
15.12000 315.000
15.16000 287.000
15.20000 284.000
15.24000 255.000
15.28000 257.000
15.32000 231.000
15.36000 264.000
15.40000 242.000
15.44000 275.000
15.48000 243.000
15.52000 247.000
15.56000 195.000
15.60000 211.000
15.64000 230.000
15.68000 239.000
15.72000 218.000
15.76000 216.000
15.80000 242.000
15.84000 194.000
15.88000 217.000
15.92000 224.000
15.96000 202.000
16.00000 221.000
16.04000 198.000
16.08000 211.000
16.12000 185.000
16.16000 197.000
16.20000 223.000
16.24000 204.000
16.28000 219.000
16.32000 220.000
16.36000 200.000
16.40000 218.000
16.44000 176.000
16.48000 187.000
16.52000 206.000
16.56000 181.000
16.60000 167.000
16.64000 201.000
16.68000 217.000
16.72000 191.000
16.76000 195.000
16.80000 193.000
16.84000 179.000
16.88000 191.000
16.92000 190.000
16.96000 183.000
17.00000 192.000
17.04000 167.000
17.08000 181.000
17.12000 175.000
17.16000 190.000
17.20000 214.000
17.24000 176.000
17.28000 200.000
17.32000 185.000
17.36000 207.000
17.40000 179.000
17.44000 189.000
17.48000 182.000
17.52000 203.000
17.56000 182.000
17.60000 204.000
17.64000 190.000
17.68000 172.000
17.72000 193.000
17.76000 199.000
17.80000 202.000
17.84000 186.000
17.88000 175.000
17.92000 185.000
17.96000 190.000
18.00000 183.000
18.04000 184.000
18.08000 172.000
18.12000 201.000
18.16000 167.000
18.20000 174.000
18.24000 184.000
18.28000 178.000
18.32000 167.000
18.36000 176.000
18.40000 171.000
18.44000 192.000
18.48000 177.000
18.52000 161.000
18.56000 208.000
18.60000 186.000
18.64000 202.000
18.68000 200.000
18.72000 191.000
18.76000 190.000
18.80000 200.000
18.84000 163.000
18.88000 187.000
18.92000 163.000
18.96000 184.000
19.00000 164.000
19.04000 202.000
19.08000 207.000
19.12000 195.000
19.16000 186.000
19.20000 174.000
19.24000 194.000
19.28000 185.000
19.32000 213.000
19.36000 187.000
19.40000 199.000
19.44000 185.000
19.48000 178.000
19.52000 205.000
19.56000 177.000
19.60000 206.000
19.64000 150.000
19.68000 203.000
19.72000 184.000
19.76000 214.000
19.80000 200.000
19.84000 192.000
19.88000 209.000
19.92000 204.000
19.96000 191.000
20.00000 186.000
20.04000 237.000
20.08000 226.000
20.12000 219.000
20.16000 248.000
20.20000 202.000
20.24000 189.000
20.28000 200.000
20.32000 208.000
20.36000 180.000
20.40000 171.000
20.44000 201.000
20.48000 173.000
20.52000 206.000
20.56000 203.000
20.60000 168.000
20.64000 185.000
20.68000 193.000
20.72000 167.000
20.76000 187.000
20.80000 183.000
20.84000 216.000
20.88000 201.000
20.92000 186.000
20.96000 222.000
21.00000 181.000
21.04000 226.000
21.08000 186.000
21.12000 200.000
21.16000 198.000
21.20000 193.000
21.24000 212.000
21.28000 196.000
21.32000 221.000
21.36000 196.000
21.40000 199.000
21.44000 194.000
21.48000 206.000
21.52000 205.000
21.56000 201.000
21.60000 226.000
21.64000 204.000
21.68000 218.000
21.72000 200.000
21.76000 214.000
21.80000 206.000
21.84000 184.000
21.88000 218.000
21.92000 201.000
21.96000 192.000
22.00000 209.000
22.04000 210.000
22.08000 198.000
22.12000 190.000
22.16000 224.000
22.20000 179.000
22.24000 215.000
22.28000 215.000
22.32000 221.000
22.36000 226.000
22.40000 206.000
22.44000 193.000
22.48000 198.000
22.52000 218.000
22.56000 216.000
22.60000 202.000
22.64000 217.000
22.68000 224.000
22.72000 227.000
22.76000 198.000
22.80000 219.000
22.84000 218.000
22.88000 201.000
22.92000 220.000
22.96000 233.000
23.00000 242.000
23.04000 221.000
23.08000 238.000
23.12000 209.000
23.16000 201.000
23.20000 239.000
23.24000 232.000
23.28000 210.000
23.32000 222.000
23.36000 215.000
23.40000 235.000
23.44000 229.000
23.48000 225.000
23.52000 218.000
23.56000 233.000
23.60000 243.000
23.64000 248.000
23.68000 225.000
23.72000 232.000
23.76000 257.000
23.80000 223.000
23.84000 218.000
23.88000 200.000
23.92000 203.000
23.96000 213.000
24.00000 221.000
24.04000 194.000
24.08000 249.000
24.12000 246.000
24.16000 243.000
24.20000 220.000
24.24000 237.000
24.28000 229.000
24.32000 255.000
24.36000 260.000
24.40000 296.000
24.44000 314.000
24.48000 320.000
24.52000 435.000
24.56000 459.000
24.60000 572.000
24.64000 802.000
24.68000 849.000
24.72000 898.000
24.76000 791.000
24.80000 517.000
24.84000 434.000
24.88000 326.000
24.92000 268.000
24.96000 212.000
25.00000 221.000
25.04000 203.000
25.08000 233.000
25.12000 212.000
25.16000 217.000
25.20000 191.000
25.24000 210.000
25.28000 209.000
25.32000 195.000
25.36000 200.000
25.40000 193.000
25.44000 190.000
25.48000 213.000
25.52000 187.000
25.56000 203.000
25.60000 211.000
25.64000 197.000
25.68000 186.000
25.72000 251.000
25.76000 207.000
25.80000 244.000
25.84000 197.000
25.88000 200.000
25.92000 180.000
25.96000 170.000
26.00000 190.000
26.04000 171.000
26.08000 190.000
26.12000 190.000
26.16000 188.000
26.20000 190.000
26.24000 201.000
26.28000 175.000
26.32000 203.000
26.36000 190.000
26.40000 188.000
26.44000 188.000
26.48000 196.000
26.52000 177.000
26.56000 183.000
26.60000 188.000
26.64000 185.000
26.68000 181.000
26.72000 193.000
26.76000 179.000
26.80000 183.000
26.84000 186.000
26.88000 198.000
26.92000 164.000
26.96000 187.000
27.00000 199.000
27.04000 201.000
27.08000 185.000
27.12000 214.000
27.16000 218.000
27.20000 192.000
27.24000 192.000
27.28000 235.000
27.32000 231.000
27.36000 247.000
27.40000 231.000
27.44000 226.000
27.48000 209.000
27.52000 193.000
27.56000 200.000
27.60000 191.000
27.64000 192.000
27.68000 188.000
27.72000 212.000
27.76000 199.000
27.80000 188.000
27.84000 218.000
27.88000 184.000
27.92000 208.000
27.96000 189.000
28.00000 181.000
28.04000 224.000
28.08000 212.000
28.12000 235.000
28.16000 243.000
28.20000 239.000
28.24000 330.000
28.28000 382.000
28.32000 489.000
28.36000 650.000
28.40000 890.000
28.44000 1285.000
28.48000 1752.000
28.52000 2458.000
28.56000 3456.000
28.60000 4319.000
28.64000 4332.000
28.68000 3479.000
28.72000 2453.000
28.76000 1477.000
28.80000 791.000
28.84000 483.000
28.88000 377.000
28.92000 265.000
28.96000 233.000
29.00000 210.000
29.04000 160.000
29.08000 176.000
29.12000 155.000
29.16000 162.000
29.20000 172.000
29.24000 154.000
29.28000 152.000
29.32000 144.000
29.36000 154.000
29.40000 162.000
29.44000 165.000
29.48000 147.000
29.52000 150.000
29.56000 146.000
29.60000 176.000
29.64000 150.000
29.68000 151.000
29.72000 157.000
29.76000 151.000
29.80000 166.000
29.84000 146.000
29.88000 137.000
29.92000 151.000
29.96000 149.000
30.00000 158.000
30.04000 126.000
30.08000 126.000
30.12000 122.000
30.16000 145.000
30.20000 129.000
30.24000 137.000
30.28000 138.000
30.32000 137.000
30.36000 142.000
30.40000 122.000
30.44000 138.000
30.48000 132.000
30.52000 149.000
30.56000 146.000
30.60000 149.000
30.64000 147.000
30.68000 130.000
30.72000 167.000
30.76000 159.000
30.80000 147.000
30.84000 152.000
30.88000 154.000
30.92000 131.000
30.96000 126.000
31.00000 146.000
31.04000 132.000
31.08000 133.000
31.12000 154.000
31.16000 150.000
31.20000 160.000
31.24000 136.000
31.28000 144.000
31.32000 122.000
31.36000 143.000
31.40000 145.000
31.44000 142.000
31.48000 136.000
31.52000 146.000
31.56000 145.000
31.60000 181.000
31.64000 188.000
31.68000 141.000
31.72000 179.000
31.76000 221.000
31.80000 264.000
31.84000 291.000
31.88000 408.000
31.92000 465.000
31.96000 645.000
32.00000 887.000
32.04000 1262.000
32.08000 1544.000
32.12000 1437.000
32.16000 1149.000
32.20000 844.000
32.24000 529.000
32.28000 334.000
32.32000 241.000
32.36000 197.000
32.40000 164.000
32.44000 163.000
32.48000 134.000
32.52000 132.000
32.56000 129.000
32.60000 120.000
32.64000 129.000
32.68000 130.000
32.72000 111.000
32.76000 117.000
32.80000 133.000
32.84000 101.000
32.88000 103.000
32.92000 115.000
32.96000 102.000
33.00000 121.000
33.04000 115.000
33.08000 111.000
33.12000 98.000
33.16000 120.000
33.20000 102.000
33.24000 108.000
33.28000 92.000
33.32000 119.000
33.36000 99.000
33.40000 107.000
33.44000 100.000
33.48000 94.000
33.52000 87.000
33.56000 102.000
33.60000 99.000
33.64000 95.000
33.68000 78.000
33.72000 114.000
33.76000 97.000
33.80000 98.000
33.84000 86.000
33.88000 92.000
33.92000 86.000
33.96000 98.000
34.00000 91.000
34.04000 105.000
34.08000 105.000
34.12000 88.000
34.16000 99.000
34.20000 83.000
34.24000 94.000
34.28000 97.000
34.32000 82.000
34.36000 98.000
34.40000 96.000
34.44000 112.000
34.48000 96.000
34.52000 84.000
34.56000 91.000
34.60000 105.000
34.64000 83.000
34.68000 93.000
34.72000 90.000
34.76000 89.000
34.80000 87.000
34.84000 106.000
34.88000 95.000
34.92000 105.000
34.96000 85.000
35.00000 95.000
35.04000 100.000
35.08000 99.000
35.12000 97.000
35.16000 117.000
35.20000 116.000
35.24000 128.000
35.28000 138.000
35.32000 110.000
35.36000 116.000
35.40000 111.000
35.44000 85.000
35.48000 81.000
35.52000 90.000
35.56000 87.000
35.60000 78.000
35.64000 112.000
35.68000 81.000
35.72000 89.000
35.76000 81.000
35.80000 87.000
35.84000 73.000
35.88000 81.000
35.92000 83.000
35.96000 87.000
36.00000 80.000
36.04000 72.000
36.08000 70.000
36.12000 86.000
36.16000 92.000
36.20000 80.000
36.24000 88.000
36.28000 94.000
36.32000 80.000
36.36000 74.000
36.40000 92.000
36.44000 86.000
36.48000 84.000
36.52000 77.000
36.56000 84.000
36.60000 90.000
36.64000 79.000
36.68000 88.000
36.72000 91.000
36.76000 104.000
36.80000 97.000
36.84000 71.000
36.88000 75.000
36.92000 85.000
36.96000 83.000
37.00000 80.000
37.04000 87.000
37.08000 78.000
37.12000 88.000
37.16000 75.000
37.20000 88.000
37.24000 73.000
37.28000 89.000
37.32000 77.000
37.36000 89.000
37.40000 75.000
37.44000 79.000
37.48000 81.000
37.52000 61.000
37.56000 75.000
37.60000 82.000
37.64000 69.000
37.68000 75.000
37.72000 86.000
37.76000 74.000
37.80000 91.000
37.84000 70.000
37.88000 81.000
37.92000 66.000
37.96000 78.000
38.00000 89.000
38.04000 75.000
38.08000 75.000
38.12000 69.000
38.16000 90.000
38.20000 56.000
38.24000 89.000
38.28000 84.000
38.32000 74.000
38.36000 85.000
38.40000 80.000
38.44000 72.000
38.48000 67.000
38.52000 75.000
38.56000 65.000
38.60000 78.000
38.64000 79.000
38.68000 80.000
38.72000 74.000
38.76000 67.000
38.80000 77.000
38.84000 68.000
38.88000 83.000
38.92000 78.000
38.96000 72.000
39.00000 104.000
39.04000 76.000
39.08000 81.000
39.12000 67.000
39.16000 81.000
39.20000 84.000
39.24000 81.000
39.28000 91.000
39.32000 75.000
39.36000 83.000
39.40000 91.000
39.44000 70.000
39.48000 90.000
39.52000 77.000
39.56000 66.000
39.60000 89.000
39.64000 85.000
39.68000 74.000
39.72000 95.000
39.76000 79.000
39.80000 72.000
39.84000 86.000
39.88000 80.000
39.92000 70.000
39.96000 67.000
40.00000 67.000
40.04000 70.000
40.08000 85.000
40.12000 87.000
40.16000 70.000
40.20000 58.000
40.24000 83.000
40.28000 81.000
40.32000 71.000
40.36000 89.000
40.40000 66.000
40.44000 87.000
40.48000 79.000
40.52000 85.000
40.56000 69.000
40.60000 94.000
40.64000 103.000
40.68000 133.000
40.72000 150.000
40.76000 179.000
40.80000 248.000
40.84000 345.000
40.88000 489.000
40.92000 673.000
40.96000 654.000
41.00000 541.000
41.04000 439.000
41.08000 311.000
41.12000 219.000
41.16000 165.000
41.20000 139.000
41.24000 98.000
41.28000 108.000
41.32000 103.000
41.36000 88.000
41.40000 75.000
41.44000 90.000
41.48000 82.000
41.52000 82.000
41.56000 75.000
41.60000 88.000
41.64000 77.000
41.68000 63.000
41.72000 87.000
41.76000 60.000
41.80000 84.000
41.84000 81.000
41.88000 82.000
41.92000 80.000
41.96000 69.000
42.00000 80.000
42.04000 78.000
42.08000 91.000
42.12000 80.000
42.16000 89.000
42.20000 85.000
42.24000 80.000
42.28000 81.000
42.32000 74.000
42.36000 81.000
42.40000 75.000
42.44000 88.000
42.48000 94.000
42.52000 79.000
42.56000 80.000
42.60000 78.000
42.64000 83.000
42.68000 88.000
42.72000 72.000
42.76000 74.000
42.80000 78.000
42.84000 69.000
42.88000 68.000
42.92000 98.000
42.96000 77.000
43.00000 91.000
43.04000 77.000
43.08000 82.000
43.12000 86.000
43.16000 92.000
43.20000 78.000
43.24000 93.000
43.28000 110.000
43.32000 123.000
43.36000 138.000
43.40000 168.000
43.44000 210.000
43.48000 322.000
43.52000 420.000
43.56000 436.000
43.60000 416.000
43.64000 331.000
43.68000 277.000
43.72000 188.000
43.76000 156.000
43.80000 134.000
43.84000 112.000
43.88000 81.000
43.92000 89.000
43.96000 72.000
44.00000 69.000
44.04000 84.000
44.08000 79.000
44.12000 67.000
44.16000 82.000
44.20000 77.000
44.24000 68.000
44.28000 95.000
44.32000 87.000
44.36000 73.000
44.40000 59.000
44.44000 74.000
44.48000 77.000
44.52000 79.000
44.56000 84.000
44.60000 79.000
44.64000 91.000
44.68000 77.000
44.72000 62.000
44.76000 85.000
44.80000 76.000
44.84000 82.000
44.88000 67.000
44.92000 62.000
44.96000 66.000
45.00000 72.000
45.04000 70.000
45.08000 81.000
45.12000 71.000
45.16000 73.000
45.20000 73.000
45.24000 68.000
45.28000 71.000
45.32000 80.000
45.36000 61.000
45.40000 75.000
45.44000 75.000
45.48000 72.000
45.52000 67.000
45.56000 86.000
45.60000 56.000
45.64000 79.000
45.68000 73.000
45.72000 59.000
45.76000 61.000
45.80000 78.000
45.84000 78.000
45.88000 77.000
45.92000 81.000
45.96000 84.000
46.00000 93.000
46.04000 68.000
46.08000 86.000
46.12000 61.000
46.16000 59.000
46.20000 79.000
46.24000 80.000
46.28000 63.000
46.32000 72.000
46.36000 82.000
46.40000 84.000
46.44000 85.000
46.48000 72.000
46.52000 80.000
46.56000 76.000
46.60000 76.000
46.64000 67.000
46.68000 83.000
46.72000 75.000
46.76000 76.000
46.80000 49.000
46.84000 66.000
46.88000 71.000
46.92000 60.000
46.96000 66.000
47.00000 81.000
47.04000 63.000
47.08000 76.000
47.12000 56.000
47.16000 86.000
47.20000 76.000
47.24000 72.000
47.28000 67.000
47.32000 61.000
47.36000 64.000
47.40000 66.000
47.44000 67.000
47.48000 88.000
47.52000 82.000
47.56000 83.000
47.60000 76.000
47.64000 59.000
47.68000 73.000
47.72000 74.000
47.76000 74.000
47.80000 72.000
47.84000 82.000
47.88000 73.000
47.92000 73.000
47.96000 74.000
48.00000 64.000
48.04000 57.000
48.08000 88.000
48.12000 78.000
48.16000 86.000
48.20000 89.000
48.24000 114.000
48.28000 130.000
48.32000 191.000
48.36000 282.000
48.40000 358.000
48.44000 386.000
48.48000 382.000
48.52000 306.000
48.56000 303.000
48.60000 240.000
48.64000 161.000
48.68000 124.000
48.72000 93.000
48.76000 88.000
48.80000 70.000
48.84000 62.000
48.88000 83.000
48.92000 64.000
48.96000 72.000
49.00000 58.000
49.04000 76.000
49.08000 72.000
49.12000 74.000
49.16000 65.000
49.20000 53.000
49.24000 50.000
49.28000 49.000
49.32000 71.000
49.36000 56.000
49.40000 62.000
49.44000 88.000
49.48000 58.000
49.52000 66.000
49.56000 70.000
49.60000 71.000
49.64000 66.000
49.68000 74.000
49.72000 61.000
49.76000 62.000
49.80000 53.000
49.84000 75.000
49.88000 62.000
49.92000 77.000
49.96000 72.000
50.00000 80.000
50.04000 55.000
50.08000 72.000
50.12000 56.000
50.16000 47.000
50.20000 64.000
50.24000 54.000
50.28000 54.000
50.32000 65.000
50.36000 65.000
50.40000 56.000
50.44000 63.000
50.48000 66.000
50.52000 68.000
50.56000 74.000
50.60000 105.000
50.64000 88.000
50.68000 106.000
50.72000 149.000
50.76000 146.000
50.80000 137.000
50.84000 120.000
50.88000 121.000
50.92000 87.000
50.96000 86.000
51.00000 76.000
51.04000 54.000
51.08000 64.000
51.12000 68.000
51.16000 62.000
51.20000 63.000
51.24000 54.000
51.28000 63.000
51.32000 55.000
51.36000 72.000
51.40000 55.000
51.44000 72.000
51.48000 56.000
51.52000 53.000
51.56000 60.000
51.60000 61.000
51.64000 67.000
51.68000 61.000
51.72000 64.000
51.76000 58.000
51.80000 56.000
51.84000 54.000
51.88000 59.000
51.92000 63.000
51.96000 65.000
52.00000 60.000
52.04000 63.000
52.08000 73.000
52.12000 49.000
52.16000 44.000
52.20000 65.000
52.24000 52.000
52.28000 42.000
52.32000 46.000
52.36000 58.000
52.40000 64.000
52.44000 68.000
52.48000 73.000
52.52000 61.000
52.56000 52.000
52.60000 54.000
52.64000 61.000
52.68000 69.000
52.72000 72.000
52.76000 75.000
52.80000 71.000
52.84000 57.000
52.88000 90.000
52.92000 109.000
52.96000 142.000
53.00000 138.000
53.04000 105.000
53.08000 114.000
53.12000 100.000
53.16000 95.000
53.20000 73.000
53.24000 54.000
53.28000 58.000
53.32000 62.000
53.36000 57.000
53.40000 60.000
53.44000 61.000
53.48000 46.000
53.52000 68.000
53.56000 51.000
53.60000 58.000
53.64000 61.000
53.68000 67.000
53.72000 50.000
53.76000 50.000
53.80000 51.000
53.84000 73.000
53.88000 50.000
53.92000 50.000
53.96000 57.000
54.00000 57.000
54.04000 54.000
54.08000 55.000
54.12000 61.000
54.16000 48.000
54.20000 41.000
54.24000 58.000
54.28000 57.000
54.32000 68.000
54.36000 47.000
54.40000 43.000
54.44000 62.000
54.48000 46.000
54.52000 52.000
54.56000 52.000
54.60000 47.000
54.64000 50.000
54.68000 54.000
54.72000 58.000
54.76000 50.000
54.80000 56.000
54.84000 46.000
54.88000 55.000
54.92000 43.000
54.96000 60.000
55.00000 62.000
55.04000 49.000
55.08000 50.000
55.12000 51.000
55.16000 55.000
55.20000 44.000
55.24000 59.000
55.28000 54.000
55.32000 56.000
55.36000 53.000
55.40000 48.000
55.44000 51.000
55.48000 47.000
55.52000 56.000
55.56000 44.000
55.60000 43.000
55.64000 48.000
55.68000 55.000
55.72000 47.000
55.76000 54.000
55.80000 46.000
55.84000 59.000
55.88000 47.000
55.92000 53.000
55.96000 48.000
56.00000 45.000
56.04000 43.000
56.08000 46.000
56.12000 61.000
56.16000 44.000
56.20000 47.000
56.24000 60.000
56.28000 60.000
56.32000 55.000
56.36000 47.000
56.40000 56.000
56.44000 52.000
56.48000 63.000
56.52000 55.000
56.56000 58.000
56.60000 43.000
56.64000 44.000
56.68000 49.000
56.72000 63.000
56.76000 54.000
56.80000 46.000
56.84000 48.000
56.88000 49.000
56.92000 48.000
56.96000 55.000
57.00000 47.000
57.04000 53.000
57.08000 59.000
57.12000 45.000
57.16000 43.000
57.20000 56.000
57.24000 48.000
57.28000 45.000
57.32000 52.000
57.36000 49.000
57.40000 59.000
57.44000 55.000
57.48000 48.000
57.52000 48.000
57.56000 60.000
57.60000 47.000
57.64000 49.000
57.68000 64.000
57.72000 52.000
57.76000 54.000
57.80000 47.000
57.84000 51.000
57.88000 54.000
57.92000 56.000
57.96000 47.000
58.00000 47.000
58.04000 45.000
58.08000 43.000
58.12000 55.000
58.16000 53.000
58.20000 53.000
58.24000 55.000
58.28000 47.000
58.32000 49.000
58.36000 56.000
58.40000 51.000
58.44000 57.000
58.48000 40.000
58.52000 52.000
58.56000 66.000
58.60000 57.000
58.64000 56.000
58.68000 50.000
58.72000 42.000
58.76000 43.000
58.80000 57.000
58.84000 56.000
58.88000 52.000
58.92000 55.000
58.96000 50.000
59.00000 45.000
59.04000 65.000
59.08000 55.000
59.12000 54.000
59.16000 63.000
59.20000 54.000
59.24000 64.000
59.28000 78.000
59.32000 65.000
59.36000 90.000
59.40000 67.000
59.44000 71.000
59.48000 57.000
59.52000 60.000
59.56000 50.000
59.60000 47.000
59.64000 56.000
59.68000 50.000
59.72000 60.000
59.76000 50.000
59.80000 33.000
59.84000 60.000
59.88000 49.000
59.92000 60.000