File: XRD/27.xy
5.00000 636.000
5.04000 616.000
5.08000 611.000
5.12000 629.000
5.16000 650.000
5.20000 617.000
5.24000 612.000
5.28000 599.000
5.32000 605.000
5.36000 518.000
5.40000 598.000
5.44000 611.000
5.48000 582.000
5.52000 605.000
5.56000 591.000
5.60000 608.000
5.64000 571.000
5.68000 581.000
5.72000 581.000
5.76000 568.000
5.80000 491.000
5.84000 554.000
5.88000 589.000
5.92000 564.000
5.96000 519.000
6.00000 525.000
6.04000 522.000
6.08000 486.000
6.12000 473.000
6.16000 512.000
6.20000 516.000
6.24000 515.000
6.28000 486.000
6.32000 480.000
6.36000 523.000
6.40000 499.000
6.44000 504.000
6.48000 494.000
6.52000 482.000
6.56000 516.000
6.60000 475.000
6.64000 467.000
6.68000 501.000
6.72000 485.000
6.76000 500.000
6.80000 478.000
6.84000 478.000
6.88000 472.000
6.92000 447.000
6.96000 447.000
7.00000 463.000
7.04000 459.000
7.08000 455.000
7.12000 464.000
7.16000 441.000
7.20000 453.000
7.24000 462.000
7.28000 453.000
7.32000 430.000
7.36000 446.000
7.40000 417.000
7.44000 406.000
7.48000 414.000
7.52000 443.000
7.56000 414.000
7.60000 415.000
7.64000 413.000
7.68000 423.000
7.72000 388.000
7.76000 413.000
7.80000 431.000
7.84000 390.000
7.88000 390.000
7.92000 392.000
7.96000 394.000
8.00000 411.000
8.04000 367.000
8.08000 417.000
8.12000 372.000
8.16000 371.000
8.20000 358.000
8.24000 384.000
8.28000 399.000
8.32000 383.000
8.36000 400.000
8.40000 338.000
8.44000 359.000
8.48000 343.000
8.52000 348.000
8.56000 356.000
8.60000 380.000
8.64000 368.000
8.68000 335.000
8.72000 380.000
8.76000 337.000
8.80000 340.000
8.84000 376.000
8.88000 354.000
8.92000 390.000
8.96000 310.000
9.00000 330.000
9.04000 359.000
9.08000 309.000
9.12000 381.000
9.16000 346.000
9.20000 381.000
9.24000 342.000
9.28000 327.000
9.32000 326.000
9.36000 348.000
9.40000 327.000
9.44000 333.000
9.48000 382.000
9.52000 338.000
9.56000 367.000
9.60000 345.000
9.64000 309.000
9.68000 346.000
9.72000 329.000
9.76000 352.000
9.80000 348.000
9.84000 342.000
9.88000 315.000
9.92000 318.000
9.96000 304.000
10.00000 315.000
10.04000 319.000
10.08000 326.000
10.12000 328.000
10.16000 358.000
10.20000 317.000
10.24000 278.000
10.28000 320.000
10.32000 286.000
10.36000 288.000
10.40000 313.000
10.44000 303.000
10.48000 313.000
10.52000 305.000
10.56000 338.000
10.60000 297.000
10.64000 287.000
10.68000 340.000
10.72000 321.000
10.76000 354.000
10.80000 298.000
10.84000 318.000
10.88000 297.000
10.92000 315.000
10.96000 301.000
11.00000 298.000
11.04000 305.000
11.08000 296.000
11.12000 289.000
11.16000 292.000
11.20000 326.000
11.24000 308.000
11.28000 285.000
11.32000 293.000
11.36000 284.000
11.40000 281.000
11.44000 295.000
11.48000 302.000
11.52000 314.000
11.56000 311.000
11.60000 301.000
11.64000 283.000
11.68000 304.000
11.72000 273.000
11.76000 317.000
11.80000 341.000
11.84000 300.000
11.88000 310.000
11.92000 265.000
11.96000 320.000
12.00000 323.000
12.04000 333.000
12.08000 304.000
12.12000 309.000
12.16000 288.000
12.20000 316.000
12.24000 314.000
12.28000 300.000
12.32000 327.000
12.36000 339.000
12.40000 336.000
12.44000 340.000
12.48000 354.000
12.52000 359.000
12.56000 344.000
12.60000 362.000
12.64000 366.000
12.68000 408.000
12.72000 432.000
12.76000 453.000
12.80000 502.000
12.84000 556.000
12.88000 570.000
12.92000 539.000
12.96000 449.000
13.00000 429.000
13.04000 476.000
13.08000 492.000
13.12000 470.000
13.16000 485.000
13.20000 471.000
13.24000 501.000
13.28000 486.000
13.32000 564.000
13.36000 595.000
13.40000 659.000
13.44000 683.000
13.48000 817.000
13.52000 957.000
13.56000 1208.000
13.60000 1497.000
13.64000 1672.000
13.68000 1601.000
13.72000 1586.000
13.76000 1636.000
13.80000 1886.000
13.84000 2107.000
13.88000 2652.000
13.92000 3389.000
13.96000 4605.000
14.00000 6334.000
14.04000 9156.000
14.08000 13370.000
14.12000 19788.000
14.16000 29820.000
14.20000 44955.000
14.24000 86240.000
14.28000 83860.000
14.32000 58520.000
14.36000 28560.000
14.40000 9428.000
14.44000 4946.000
14.48000 2809.000
14.52000 1736.000
14.56000 1196.000
14.60000 888.000
14.64000 770.000
14.68000 637.000
14.72000 570.000
14.76000 514.000
14.80000 534.000
14.84000 495.000
14.88000 475.000
14.92000 470.000
14.96000 402.000
15.00000 381.000
15.04000 390.000
15.08000 405.000
15.12000 373.000
15.16000 384.000
15.20000 342.000
15.24000 360.000
15.28000 316.000
15.32000 329.000
15.36000 314.000
15.40000 281.000
15.44000 281.000
15.48000 293.000
15.52000 292.000
15.56000 250.000
15.60000 276.000
15.64000 271.000
15.68000 280.000
15.72000 233.000
15.76000 237.000
15.80000 237.000
15.84000 255.000
15.88000 248.000
15.92000 235.000
15.96000 263.000
16.00000 225.000
16.04000 235.000
16.08000 257.000
16.12000 233.000
16.16000 245.000
16.20000 226.000
16.24000 243.000
16.28000 216.000
16.32000 217.000
16.36000 214.000
16.40000 209.000
16.44000 241.000
16.48000 212.000
16.52000 176.000
16.56000 206.000
16.60000 208.000
16.64000 215.000
16.68000 189.000
16.72000 223.000
16.76000 212.000
16.80000 212.000
16.84000 214.000
16.88000 232.000
16.92000 198.000
16.96000 209.000
17.00000 227.000
17.04000 217.000
17.08000 196.000
17.12000 205.000
17.16000 189.000
17.20000 170.000
17.24000 210.000
17.28000 186.000
17.32000 216.000
17.36000 191.000
17.40000 210.000
17.44000 185.000
17.48000 189.000
17.52000 218.000
17.56000 211.000
17.60000 194.000
17.64000 205.000
17.68000 202.000
17.72000 179.000
17.76000 204.000
17.80000 219.000
17.84000 166.000
17.88000 181.000
17.92000 210.000
17.96000 228.000
18.00000 173.000
18.04000 196.000
18.08000 183.000
18.12000 223.000
18.16000 186.000
18.20000 196.000
18.24000 202.000
18.28000 171.000
18.32000 193.000
18.36000 173.000
18.40000 193.000
18.44000 209.000
18.48000 191.000
18.52000 204.000
18.56000 199.000
18.60000 184.000
18.64000 209.000
18.68000 217.000
18.72000 194.000
18.76000 188.000
18.80000 218.000
18.84000 187.000
18.88000 187.000
18.92000 225.000
18.96000 202.000
19.00000 194.000
19.04000 204.000
19.08000 212.000
19.12000 177.000
19.16000 183.000
19.20000 199.000
19.24000 180.000
19.28000 184.000
19.32000 195.000
19.36000 187.000
19.40000 205.000
19.44000 185.000
19.48000 198.000
19.52000 212.000
19.56000 179.000
19.60000 208.000
19.64000 205.000
19.68000 189.000
19.72000 211.000
19.76000 199.000
19.80000 190.000
19.84000 195.000
19.88000 216.000
19.92000 190.000
19.96000 233.000
20.00000 208.000
20.04000 205.000
20.08000 212.000
20.12000 238.000
20.16000 207.000
20.20000 228.000
20.24000 218.000
20.28000 223.000
20.32000 200.000
20.36000 223.000
20.40000 188.000
20.44000 212.000
20.48000 218.000
20.52000 217.000
20.56000 199.000
20.60000 180.000
20.64000 196.000
20.68000 189.000
20.72000 202.000
20.76000 201.000
20.80000 205.000
20.84000 200.000
20.88000 197.000
20.92000 199.000
20.96000 221.000
21.00000 209.000
21.04000 196.000
21.08000 210.000
21.12000 212.000
21.16000 221.000
21.20000 214.000
21.24000 199.000
21.28000 222.000
21.32000 195.000
21.36000 212.000
21.40000 200.000
21.44000 213.000
21.48000 193.000
21.52000 204.000
21.56000 236.000
21.60000 198.000
21.64000 224.000
21.68000 220.000
21.72000 213.000
21.76000 205.000
21.80000 228.000
21.84000 211.000
21.88000 233.000
21.92000 221.000
21.96000 228.000
22.00000 243.000
22.04000 209.000
22.08000 245.000
22.12000 204.000
22.16000 242.000
22.20000 190.000
22.24000 237.000
22.28000 236.000
22.32000 224.000
22.36000 221.000
22.40000 195.000
22.44000 234.000
22.48000 235.000
22.52000 207.000
22.56000 237.000
22.60000 241.000
22.64000 266.000
22.68000 246.000
22.72000 220.000
22.76000 225.000
22.80000 224.000
22.84000 234.000
22.88000 213.000
22.92000 249.000
22.96000 242.000
23.00000 202.000
23.04000 236.000
23.08000 249.000
23.12000 236.000
23.16000 213.000
23.20000 239.000
23.24000 225.000
23.28000 261.000
23.32000 220.000
23.36000 215.000
23.40000 242.000
23.44000 267.000
23.48000 228.000
23.52000 196.000
23.56000 229.000
23.60000 216.000
23.64000 236.000
23.68000 256.000
23.72000 240.000
23.76000 249.000
23.80000 226.000
23.84000 209.000
23.88000 244.000
23.92000 259.000
23.96000 249.000
24.00000 221.000
24.04000 247.000
24.08000 243.000
24.12000 253.000
24.16000 224.000
24.20000 250.000
24.24000 224.000
24.28000 215.000
24.32000 262.000
24.36000 223.000
24.40000 247.000
24.44000 262.000
24.48000 228.000
24.52000 256.000
24.56000 248.000
24.60000 277.000
24.64000 281.000
24.68000 299.000
24.72000 343.000
24.76000 380.000
24.80000 461.000
24.84000 468.000
24.88000 456.000
24.92000 377.000
24.96000 317.000
25.00000 273.000
25.04000 262.000
25.08000 219.000
25.12000 221.000
25.16000 244.000
25.20000 223.000
25.24000 225.000
25.28000 240.000
25.32000 235.000
25.36000 220.000
25.40000 225.000
25.44000 259.000
25.48000 218.000
25.52000 220.000
25.56000 256.000
25.60000 246.000
25.64000 231.000
25.68000 240.000
25.72000 236.000
25.76000 232.000
25.80000 261.000
25.84000 260.000
25.88000 234.000
25.92000 259.000
25.96000 255.000
26.00000 236.000
26.04000 219.000
26.08000 234.000
26.12000 199.000
26.16000 205.000
26.20000 232.000
26.24000 225.000
26.28000 205.000
26.32000 225.000
26.36000 205.000
26.40000 233.000
26.44000 255.000
26.48000 224.000
26.52000 246.000
26.56000 209.000
26.60000 250.000
26.64000 229.000
26.68000 254.000
26.72000 230.000
26.76000 224.000
26.80000 218.000
26.84000 224.000
26.88000 246.000
26.92000 216.000
26.96000 220.000
27.00000 225.000
27.04000 218.000
27.08000 238.000
27.12000 224.000
27.16000 239.000
27.20000 228.000
27.24000 254.000
27.28000 240.000
27.32000 245.000
27.36000 282.000
27.40000 289.000
27.44000 322.000
27.48000 362.000
27.52000 328.000
27.56000 335.000
27.60000 283.000
27.64000 287.000
27.68000 283.000
27.72000 288.000
27.76000 250.000
27.80000 302.000
27.84000 274.000
27.88000 285.000
27.92000 287.000
27.96000 232.000
28.00000 269.000
28.04000 267.000
28.08000 276.000
28.12000 301.000
28.16000 298.000
28.20000 288.000
28.24000 312.000
28.28000 338.000
28.32000 389.000
28.36000 452.000
28.40000 517.000
28.44000 675.000
28.48000 906.000
28.52000 1117.000
28.56000 1734.000
28.60000 2366.000
28.64000 3564.000
28.68000 5164.000
28.72000 7227.000
28.76000 8633.000
28.80000 7956.000
28.84000 6010.000
28.88000 3760.000
28.92000 2076.000
28.96000 1208.000
29.00000 738.000
29.04000 524.000
29.08000 383.000
29.12000 322.000
29.16000 309.000
29.20000 246.000
29.24000 247.000
29.28000 239.000
29.32000 225.000
29.36000 248.000
29.40000 204.000
29.44000 249.000
29.48000 223.000
29.52000 190.000
29.56000 212.000
29.60000 188.000
29.64000 183.000
29.68000 189.000
29.72000 186.000
29.76000 203.000
29.80000 176.000
29.84000 177.000
29.88000 181.000
29.92000 177.000
29.96000 174.000
30.00000 166.000
30.04000 160.000
30.08000 173.000
30.12000 179.000
30.16000 181.000
30.20000 160.000
30.24000 155.000
30.28000 164.000
30.32000 147.000
30.36000 163.000
30.40000 171.000
30.44000 181.000
30.48000 152.000
30.52000 138.000
30.56000 155.000
30.60000 162.000
30.64000 160.000
30.68000 143.000
30.72000 146.000
30.76000 166.000
30.80000 134.000
30.84000 151.000
30.88000 179.000
30.92000 148.000
30.96000 166.000
31.00000 162.000
31.04000 175.000
31.08000 146.000
31.12000 138.000
31.16000 153.000
31.20000 145.000
31.24000 151.000
31.28000 148.000
31.32000 142.000
31.36000 147.000
31.40000 156.000
31.44000 131.000
31.48000 144.000
31.52000 134.000
31.56000 138.000
31.60000 157.000
31.64000 138.000
31.68000 146.000
31.72000 157.000
31.76000 146.000
31.80000 194.000
31.84000 162.000
31.88000 198.000
31.92000 238.000
31.96000 300.000
32.00000 344.000
32.04000 478.000
32.08000 615.000
32.12000 806.000
32.16000 1111.000
32.20000 1459.000
32.24000 1743.000
32.28000 1780.000
32.32000 1269.000
32.36000 962.000
32.40000 627.000
32.44000 370.000
32.48000 248.000
32.52000 197.000
32.56000 155.000
32.60000 163.000
32.64000 143.000
32.68000 145.000
32.72000 115.000
32.76000 136.000
32.80000 122.000
32.84000 133.000
32.88000 102.000
32.92000 124.000
32.96000 116.000
33.00000 106.000
33.04000 122.000
33.08000 131.000
33.12000 110.000
33.16000 126.000
33.20000 100.000
33.24000 122.000
33.28000 102.000
33.32000 117.000
33.36000 107.000
33.40000 113.000
33.44000 94.000
33.48000 113.000
33.52000 107.000
33.56000 105.000
33.60000 103.000
33.64000 104.000
33.68000 104.000
33.72000 103.000
33.76000 103.000
33.80000 95.000
33.84000 99.000
33.88000 92.000
33.92000 88.000
33.96000 83.000
34.00000 92.000
34.04000 93.000
34.08000 101.000
34.12000 113.000
34.16000 85.000
34.20000 94.000
34.24000 89.000
34.28000 102.000
34.32000 107.000
34.36000 98.000
34.40000 86.000
34.44000 115.000
34.48000 102.000
34.52000 93.000
34.56000 104.000
34.60000 106.000
34.64000 92.000
34.68000 103.000
34.72000 101.000
34.76000 110.000
34.80000 99.000
34.84000 95.000
34.88000 107.000
34.92000 98.000
34.96000 82.000
35.00000 90.000
35.04000 96.000
35.08000 99.000
35.12000 89.000
35.16000 109.000
35.20000 102.000
35.24000 101.000
35.28000 103.000
35.32000 106.000
35.36000 103.000
35.40000 103.000
35.44000 109.000
35.48000 120.000
35.52000 118.000
35.56000 90.000
35.60000 102.000
35.64000 91.000
35.68000 80.000
35.72000 85.000
35.76000 84.000
35.80000 100.000
35.84000 87.000
35.88000 93.000
35.92000 85.000
35.96000 82.000
36.00000 93.000
36.04000 97.000
36.08000 81.000
36.12000 78.000
36.16000 88.000
36.20000 90.000
36.24000 80.000
36.28000 90.000
36.32000 95.000
36.36000 85.000
36.40000 85.000
36.44000 84.000
36.48000 87.000
36.52000 92.000
36.56000 78.000
36.60000 81.000
36.64000 89.000
36.68000 85.000
36.72000 103.000
36.76000 87.000
36.80000 104.000
36.84000 75.000
36.88000 89.000
36.92000 82.000
36.96000 79.000
37.00000 93.000
37.04000 71.000
37.08000 76.000
37.12000 91.000
37.16000 89.000
37.20000 90.000
37.24000 97.000
37.28000 67.000
37.32000 87.000
37.36000 92.000
37.40000 76.000
37.44000 101.000
37.48000 86.000
37.52000 72.000
37.56000 83.000
37.60000 87.000
37.64000 84.000
37.68000 92.000
37.72000 84.000
37.76000 90.000
37.80000 105.000
37.84000 89.000
37.88000 88.000
37.92000 95.000
37.96000 98.000
38.00000 82.000
38.04000 94.000
38.08000 71.000
38.12000 68.000
38.16000 83.000
38.20000 103.000
38.24000 65.000
38.28000 76.000
38.32000 84.000
38.36000 90.000
38.40000 74.000
38.44000 115.000
38.48000 89.000
38.52000 83.000
38.56000 79.000
38.60000 91.000
38.64000 79.000
38.68000 78.000
38.72000 91.000
38.76000 85.000
38.80000 73.000
38.84000 99.000
38.88000 71.000
38.92000 105.000
38.96000 86.000
39.00000 72.000
39.04000 87.000
39.08000 79.000
39.12000 73.000
39.16000 85.000
39.20000 84.000
39.24000 77.000
39.28000 72.000
39.32000 102.000
39.36000 83.000
39.40000 66.000
39.44000 92.000
39.48000 81.000
39.52000 75.000
39.56000 69.000
39.60000 85.000
39.64000 82.000
39.68000 79.000
39.72000 78.000
39.76000 79.000
39.80000 85.000
39.84000 86.000
39.88000 96.000
39.92000 84.000
39.96000 77.000
40.00000 72.000
40.04000 75.000
40.08000 67.000
40.12000 69.000
40.16000 70.000
40.20000 73.000
40.24000 67.000
40.28000 95.000
40.32000 77.000
40.36000 82.000
40.40000 82.000
40.44000 73.000
40.48000 76.000
40.52000 63.000
40.56000 89.000
40.60000 87.000
40.64000 77.000
40.68000 76.000
40.72000 60.000
40.76000 78.000
40.80000 94.000
40.84000 83.000
40.88000 93.000
40.92000 105.000
40.96000 125.000
41.00000 134.000
41.04000 167.000
41.08000 207.000
41.12000 286.000
41.16000 303.000
41.20000 262.000
41.24000 217.000
41.28000 156.000
41.32000 160.000
41.36000 111.000
41.40000 77.000
41.44000 73.000
41.48000 87.000
41.52000 65.000
41.56000 88.000
41.60000 93.000
41.64000 65.000
41.68000 81.000
41.72000 80.000
41.76000 87.000
41.80000 68.000
41.84000 78.000
41.88000 63.000
41.92000 70.000
41.96000 76.000
42.00000 72.000
42.04000 71.000
42.08000 70.000
42.12000 81.000
42.16000 80.000
42.20000 88.000
42.24000 79.000
42.28000 82.000
42.32000 88.000
42.36000 83.000
42.40000 89.000
42.44000 77.000
42.48000 88.000
42.52000 82.000
42.56000 65.000
42.60000 80.000
42.64000 96.000
42.68000 81.000
42.72000 76.000
42.76000 73.000
42.80000 84.000
42.84000 98.000
42.88000 83.000
42.92000 81.000
42.96000 77.000
43.00000 88.000
43.04000 95.000
43.08000 78.000
43.12000 72.000
43.16000 91.000
43.20000 84.000
43.24000 78.000
43.28000 93.000
43.32000 73.000
43.36000 87.000
43.40000 78.000
43.44000 97.000
43.48000 82.000
43.52000 90.000
43.56000 102.000
43.60000 91.000
43.64000 144.000
43.68000 151.000
43.72000 188.000
43.76000 213.000
43.80000 216.000
43.84000 169.000
43.88000 140.000
43.92000 145.000
43.96000 117.000
44.00000 91.000
44.04000 86.000
44.08000 80.000
44.12000 85.000
44.16000 82.000
44.20000 73.000
44.24000 83.000
44.28000 64.000
44.32000 78.000
44.36000 79.000
44.40000 85.000
44.44000 86.000
44.48000 81.000
44.52000 85.000
44.56000 79.000
44.60000 74.000
44.64000 66.000
44.68000 86.000
44.72000 83.000
44.76000 57.000
44.80000 76.000
44.84000 88.000
44.88000 79.000
44.92000 76.000
44.96000 77.000
45.00000 90.000
45.04000 91.000
45.08000 83.000
45.12000 61.000
45.16000 69.000
45.20000 73.000
45.24000 88.000
45.28000 73.000
45.32000 71.000
45.36000 90.000
45.40000 73.000
45.44000 84.000
45.48000 78.000
45.52000 90.000
45.56000 67.000
45.60000 81.000
45.64000 82.000
45.68000 77.000
45.72000 64.000
45.76000 87.000
45.80000 68.000
45.84000 68.000
45.88000 89.000
45.92000 70.000
45.96000 76.000
46.00000 60.000
46.04000 86.000
46.08000 84.000
46.12000 85.000
46.16000 92.000
46.20000 81.000
46.24000 91.000
46.28000 80.000
46.32000 78.000
46.36000 96.000
46.40000 87.000
46.44000 76.000
46.48000 84.000
46.52000 76.000
46.56000 78.000
46.60000 81.000
46.64000 73.000
46.68000 71.000
46.72000 83.000
46.76000 80.000
46.80000 78.000
46.84000 86.000
46.88000 82.000
46.92000 78.000
46.96000 87.000
47.00000 79.000
47.04000 84.000
47.08000 73.000
47.12000 68.000
47.16000 94.000
47.20000 83.000
47.24000 79.000
47.28000 79.000
47.32000 81.000
47.36000 64.000
47.40000 79.000
47.44000 75.000
47.48000 72.000
47.52000 88.000
47.56000 80.000
47.60000 80.000
47.64000 73.000
47.68000 79.000
47.72000 80.000
47.76000 75.000
47.80000 77.000
47.84000 61.000
47.88000 81.000
47.92000 67.000
47.96000 80.000
48.00000 72.000
48.04000 63.000
48.08000 76.000
48.12000 69.000
48.16000 98.000
48.20000 81.000
48.24000 79.000
48.28000 86.000
48.32000 81.000
48.36000 82.000
48.40000 91.000
48.44000 92.000
48.48000 116.000
48.52000 151.000
48.56000 178.000
48.60000 235.000
48.64000 349.000
48.68000 370.000
48.72000 355.000
48.76000 286.000
48.80000 287.000
48.84000 209.000
48.88000 167.000
48.92000 139.000
48.96000 97.000
49.00000 80.000
49.04000 90.000
49.08000 79.000
49.12000 85.000
49.16000 77.000
49.20000 81.000
49.24000 72.000
49.28000 76.000
49.32000 70.000
49.36000 84.000
49.40000 63.000
49.44000 63.000
49.48000 85.000
49.52000 68.000
49.56000 65.000
49.60000 77.000
49.64000 71.000
49.68000 49.000
49.72000 72.000
49.76000 71.000
49.80000 65.000
49.84000 66.000
49.88000 56.000
49.92000 65.000
49.96000 75.000
50.00000 60.000
50.04000 70.000
50.08000 77.000
50.12000 67.000
50.16000 71.000
50.20000 63.000
50.24000 65.000
50.28000 54.000
50.32000 66.000
50.36000 82.000
50.40000 58.000
50.44000 78.000
50.48000 69.000
50.52000 69.000
50.56000 64.000
50.60000 67.000
50.64000 73.000
50.68000 62.000
50.72000 70.000
50.76000 69.000
50.80000 70.000
50.84000 76.000
50.88000 83.000
50.92000 90.000
50.96000 110.000
51.00000 109.000
51.04000 105.000
51.08000 109.000
51.12000 81.000
51.16000 89.000
51.20000 83.000
51.24000 65.000
51.28000 62.000
51.32000 66.000
51.36000 63.000
51.40000 49.000
51.44000 67.000
51.48000 69.000
51.52000 59.000
51.56000 56.000
51.60000 76.000
51.64000 60.000
51.68000 61.000
51.72000 63.000
51.76000 53.000
51.80000 72.000
51.84000 70.000
51.88000 73.000
51.92000 60.000
51.96000 62.000
52.00000 69.000
52.04000 66.000
52.08000 64.000
52.12000 69.000
52.16000 56.000
52.20000 66.000
52.24000 71.000
52.28000 60.000
52.32000 57.000
52.36000 62.000
52.40000 60.000
52.44000 71.000
52.48000 71.000
52.52000 75.000
52.56000 62.000
52.60000 72.000
52.64000 66.000
52.68000 70.000
52.72000 70.000
52.76000 49.000
52.80000 60.000
52.84000 63.000
52.88000 76.000
52.92000 76.000
52.96000 76.000
53.00000 68.000
53.04000 79.000
53.08000 114.000
53.12000 103.000
53.16000 150.000
53.20000 189.000
53.24000 211.000
53.28000 183.000
53.32000 144.000
53.36000 139.000
53.40000 115.000
53.44000 109.000
53.48000 99.000
53.52000 61.000
53.56000 60.000
53.60000 50.000
53.64000 57.000
53.68000 59.000
53.72000 63.000
53.76000 51.000
53.80000 62.000
53.84000 63.000
53.88000 64.000
53.92000 58.000
53.96000 63.000
54.00000 58.000
54.04000 64.000
54.08000 66.000
54.12000 62.000
54.16000 49.000
54.20000 67.000
54.24000 58.000
54.28000 46.000
54.32000 57.000
54.36000 63.000
54.40000 51.000
54.44000 58.000
54.48000 60.000
54.52000 52.000
54.56000 70.000
54.60000 64.000
54.64000 62.000
54.68000 61.000
54.72000 54.000
54.76000 64.000
54.80000 40.000
54.84000 71.000
54.88000 75.000
54.92000 64.000
54.96000 55.000
55.00000 56.000
55.04000 60.000
55.08000 53.000
55.12000 66.000
55.16000 81.000
55.20000 61.000
55.24000 59.000
55.28000 66.000
55.32000 62.000
55.36000 69.000
55.40000 86.000
55.44000 74.000
55.48000 74.000
55.52000 65.000
55.56000 58.000
55.60000 74.000
55.64000 55.000
55.68000 69.000
55.72000 46.000
55.76000 43.000
55.80000 50.000
55.84000 55.000
55.88000 64.000
55.92000 61.000
55.96000 45.000
56.00000 58.000
56.04000 59.000
56.08000 63.000
56.12000 51.000
56.16000 57.000
56.20000 56.000
56.24000 58.000
56.28000 58.000
56.32000 58.000
56.36000 61.000
56.40000 60.000
56.44000 51.000
56.48000 51.000
56.52000 63.000
56.56000 52.000
56.60000 68.000
56.64000 71.000
56.68000 66.000
56.72000 56.000
56.76000 70.000
56.80000 55.000
56.84000 60.000
56.88000 78.000
56.92000 45.000
56.96000 46.000
57.00000 52.000
57.04000 52.000
57.08000 52.000
57.12000 48.000
57.16000 57.000
57.20000 60.000
57.24000 50.000
57.28000 51.000
57.32000 46.000
57.36000 45.000
57.40000 53.000
57.44000 60.000
57.48000 60.000
57.52000 52.000
57.56000 71.000
57.60000 67.000
57.64000 56.000
57.68000 47.000
57.72000 55.000
57.76000 52.000
57.80000 50.000
57.84000 58.000
57.88000 55.000
57.92000 50.000
57.96000 49.000
58.00000 50.000
58.04000 45.000
58.08000 52.000
58.12000 49.000
58.16000 49.000
58.20000 53.000
58.24000 62.000
58.28000 59.000
58.32000 51.000
58.36000 72.000
58.40000 44.000
58.44000 43.000
58.48000 51.000
58.52000 55.000
58.56000 53.000
58.60000 40.000
58.64000 49.000
58.68000 71.000
58.72000 56.000
58.76000 62.000
58.80000 50.000
58.84000 59.000
58.88000 47.000
58.92000 45.000
58.96000 60.000
59.00000 62.000
59.04000 48.000
59.08000 58.000
59.12000 57.000
59.16000 55.000
59.20000 40.000
59.24000 50.000
59.28000 36.000
59.32000 55.000
59.36000 54.000
59.40000 55.000
59.44000 57.000
59.48000 47.000
59.52000 57.000
59.56000 64.000
59.60000 60.000
59.64000 72.000
59.68000 52.000
59.72000 60.000
59.76000 65.000
59.80000 68.000
59.84000 57.000
59.88000 49.000
59.92000 47.000