File: XRD/29.xy
5.00000 545.000
5.04000 530.000
5.08000 506.000
5.12000 504.000
5.16000 529.000
5.20000 530.000
5.24000 514.000
5.28000 494.000
5.32000 514.000
5.36000 472.000
5.40000 495.000
5.44000 474.000
5.48000 513.000
5.52000 463.000
5.56000 470.000
5.60000 451.000
5.64000 441.000
5.68000 438.000
5.72000 445.000
5.76000 448.000
5.80000 487.000
5.84000 463.000
5.88000 476.000
5.92000 430.000
5.96000 415.000
6.00000 424.000
6.04000 420.000
6.08000 415.000
6.12000 388.000
6.16000 452.000
6.20000 447.000
6.24000 429.000
6.28000 410.000
6.32000 416.000
6.36000 395.000
6.40000 423.000
6.44000 395.000
6.48000 419.000
6.52000 367.000
6.56000 447.000
6.60000 409.000
6.64000 393.000
6.68000 391.000
6.72000 360.000
6.76000 380.000
6.80000 393.000
6.84000 345.000
6.88000 402.000
6.92000 363.000
6.96000 355.000
7.00000 344.000
7.04000 385.000
7.08000 351.000
7.12000 371.000
7.16000 323.000
7.20000 376.000
7.24000 360.000
7.28000 342.000
7.32000 345.000
7.36000 362.000
7.40000 387.000
7.44000 338.000
7.48000 352.000
7.52000 309.000
7.56000 328.000
7.60000 309.000
7.64000 345.000
7.68000 329.000
7.72000 331.000
7.76000 317.000
7.80000 331.000
7.84000 323.000
7.88000 315.000
7.92000 313.000
7.96000 331.000
8.00000 324.000
8.04000 282.000
8.08000 308.000
8.12000 308.000
8.16000 308.000
8.20000 324.000
8.24000 305.000
8.28000 316.000
8.32000 296.000
8.36000 318.000
8.40000 302.000
8.44000 316.000
8.48000 267.000
8.52000 318.000
8.56000 298.000
8.60000 285.000
8.64000 265.000
8.68000 249.000
8.72000 325.000
8.76000 271.000
8.80000 269.000
8.84000 287.000
8.88000 295.000
8.92000 257.000
8.96000 273.000
9.00000 258.000
9.04000 288.000
9.08000 279.000
9.12000 235.000
9.16000 282.000
9.20000 270.000
9.24000 270.000
9.28000 280.000
9.32000 254.000
9.36000 263.000
9.40000 268.000
9.44000 296.000
9.48000 264.000
9.52000 258.000
9.56000 252.000
9.60000 259.000
9.64000 244.000
9.68000 243.000
9.72000 280.000
9.76000 260.000
9.80000 250.000
9.84000 264.000
9.88000 238.000
9.92000 251.000
9.96000 230.000
10.00000 239.000
10.04000 231.000
10.08000 242.000
10.12000 239.000
10.16000 234.000
10.20000 225.000
10.24000 276.000
10.28000 239.000
10.32000 251.000
10.36000 265.000
10.40000 224.000
10.44000 256.000
10.48000 239.000
10.52000 259.000
10.56000 239.000
10.60000 218.000
10.64000 227.000
10.68000 213.000
10.72000 226.000
10.76000 259.000
10.80000 222.000
10.84000 221.000
10.88000 236.000
10.92000 268.000
10.96000 205.000
11.00000 234.000
11.04000 227.000
11.08000 254.000
11.12000 240.000
11.16000 210.000
11.20000 243.000
11.24000 206.000
11.28000 244.000
11.32000 234.000
11.36000 212.000
11.40000 209.000
11.44000 211.000
11.48000 231.000
11.52000 218.000
11.56000 216.000
11.60000 195.000
11.64000 225.000
11.68000 210.000
11.72000 228.000
11.76000 192.000
11.80000 228.000
11.84000 217.000
11.88000 206.000
11.92000 220.000
11.96000 230.000
12.00000 234.000
12.04000 234.000
12.08000 216.000
12.12000 231.000
12.16000 213.000
12.20000 214.000
12.24000 235.000
12.28000 214.000
12.32000 208.000
12.36000 223.000
12.40000 216.000
12.44000 206.000
12.48000 213.000
12.52000 234.000
12.56000 224.000
12.60000 221.000
12.64000 236.000
12.68000 213.000
12.72000 227.000
12.76000 260.000
12.80000 245.000
12.84000 280.000
12.88000 271.000
12.92000 268.000
12.96000 309.000
13.00000 313.000
13.04000 260.000
13.08000 294.000
13.12000 272.000
13.16000 261.000
13.20000 245.000
13.24000 233.000
13.28000 254.000
13.32000 268.000
13.36000 271.000
13.40000 283.000
13.44000 317.000
13.48000 298.000
13.52000 309.000
13.56000 336.000
13.60000 369.000
13.64000 421.000
13.68000 522.000
13.72000 611.000
13.76000 697.000
13.80000 686.000
13.84000 726.000
13.88000 792.000
13.92000 908.000
13.96000 1040.000
14.00000 1266.000
14.04000 1630.000
14.08000 2091.000
14.12000 2681.000
14.16000 3693.000
14.20000 5249.000
14.24000 7314.000
14.28000 10594.000
14.32000 15712.000
14.36000 22523.000
14.40000 26058.000
14.44000 21646.000
14.48000 13723.000
14.52000 7370.000
14.56000 3994.000
14.60000 2294.000
14.64000 1177.000
14.68000 775.000
14.72000 555.000
14.76000 450.000
14.80000 359.000
14.84000 325.000
14.88000 297.000
14.92000 323.000
14.96000 307.000
15.00000 301.000
15.04000 270.000
15.08000 246.000
15.12000 240.000
15.16000 233.000
15.20000 232.000
15.24000 223.000
15.28000 242.000
15.32000 217.000
15.36000 256.000
15.40000 242.000
15.44000 283.000
15.48000 235.000
15.52000 196.000
15.56000 204.000
15.60000 209.000
15.64000 194.000
15.68000 226.000
15.72000 207.000
15.76000 205.000
15.80000 212.000
15.84000 203.000
15.88000 190.000
15.92000 207.000
15.96000 170.000
16.00000 206.000
16.04000 191.000
16.08000 182.000
16.12000 191.000
16.16000 183.000
16.20000 179.000
16.24000 173.000
16.28000 200.000
16.32000 193.000
16.36000 169.000
16.40000 182.000
16.44000 192.000
16.48000 193.000
16.52000 174.000
16.56000 191.000
16.60000 171.000
16.64000 171.000
16.68000 156.000
16.72000 164.000
16.76000 184.000
16.80000 186.000
16.84000 159.000
16.88000 173.000
16.92000 180.000
16.96000 194.000
17.00000 187.000
17.04000 170.000
17.08000 158.000
17.12000 178.000
17.16000 154.000
17.20000 175.000
17.24000 183.000
17.28000 176.000
17.32000 173.000
17.36000 204.000
17.40000 158.000
17.44000 169.000
17.48000 179.000
17.52000 160.000
17.56000 183.000
17.60000 182.000
17.64000 191.000
17.68000 166.000
17.72000 173.000
17.76000 159.000
17.80000 184.000
17.84000 179.000
17.88000 156.000
17.92000 163.000
17.96000 158.000
18.00000 168.000
18.04000 151.000
18.08000 164.000
18.12000 171.000
18.16000 167.000
18.20000 137.000
18.24000 160.000
18.28000 171.000
18.32000 156.000
18.36000 175.000
18.40000 175.000
18.44000 192.000
18.48000 173.000
18.52000 188.000
18.56000 183.000
18.60000 172.000
18.64000 157.000
18.68000 174.000
18.72000 167.000
18.76000 163.000
18.80000 162.000
18.84000 193.000
18.88000 159.000
18.92000 165.000
18.96000 147.000
19.00000 164.000
19.04000 160.000
19.08000 170.000
19.12000 168.000
19.16000 178.000
19.20000 167.000
19.24000 174.000
19.28000 183.000
19.32000 188.000
19.36000 173.000
19.40000 171.000
19.44000 177.000
19.48000 191.000
19.52000 198.000
19.56000 159.000
19.60000 172.000
19.64000 155.000
19.68000 180.000
19.72000 178.000
19.76000 150.000
19.80000 183.000
19.84000 164.000
19.88000 183.000
19.92000 169.000
19.96000 178.000
20.00000 207.000
20.04000 183.000
20.08000 257.000
20.12000 239.000
20.16000 331.000
20.20000 361.000
20.24000 501.000
20.28000 636.000
20.32000 827.000
20.36000 1110.000
20.40000 1504.000
20.44000 1538.000
20.48000 1287.000
20.52000 974.000
20.56000 602.000
20.60000 421.000
20.64000 276.000
20.68000 240.000
20.72000 218.000
20.76000 209.000
20.80000 178.000
20.84000 158.000
20.88000 183.000
20.92000 188.000
20.96000 168.000
21.00000 172.000
21.04000 167.000
21.08000 119.000
21.12000 178.000
21.16000 174.000
21.20000 197.000
21.24000 169.000
21.28000 170.000
21.32000 154.000
21.36000 162.000
21.40000 159.000
21.44000 167.000
21.48000 175.000
21.52000 168.000
21.56000 145.000
21.60000 165.000
21.64000 169.000
21.68000 190.000
21.72000 186.000
21.76000 190.000
21.80000 152.000
21.84000 155.000
21.88000 169.000
21.92000 193.000
21.96000 192.000
22.00000 171.000
22.04000 176.000
22.08000 171.000
22.12000 182.000
22.16000 187.000
22.20000 173.000
22.24000 147.000
22.28000 177.000
22.32000 150.000
22.36000 162.000
22.40000 149.000
22.44000 167.000
22.48000 171.000
22.52000 183.000
22.56000 203.000
22.60000 174.000
22.64000 174.000
22.68000 182.000
22.72000 182.000
22.76000 165.000
22.80000 174.000
22.84000 169.000
22.88000 156.000
22.92000 172.000
22.96000 187.000
23.00000 172.000
23.04000 173.000
23.08000 169.000
23.12000 197.000
23.16000 161.000
23.20000 189.000
23.24000 161.000
23.28000 162.000
23.32000 147.000
23.36000 170.000
23.40000 139.000
23.44000 172.000
23.48000 168.000
23.52000 195.000
23.56000 182.000
23.60000 167.000
23.64000 171.000
23.68000 163.000
23.72000 178.000
23.76000 170.000
23.80000 185.000
23.84000 188.000
23.88000 160.000
23.92000 175.000
23.96000 189.000
24.00000 171.000
24.04000 177.000
24.08000 137.000
24.12000 181.000
24.16000 180.000
24.20000 162.000
24.24000 159.000
24.28000 150.000
24.32000 177.000
24.36000 163.000
24.40000 164.000
24.44000 180.000
24.48000 192.000
24.52000 141.000
24.56000 157.000
24.60000 150.000
24.64000 160.000
24.68000 196.000
24.72000 181.000
24.76000 212.000
24.80000 209.000
24.84000 211.000
24.88000 231.000
24.92000 251.000
24.96000 296.000
25.00000 365.000
25.04000 369.000
25.08000 439.000
25.12000 414.000
25.16000 374.000
25.20000 300.000
25.24000 230.000
25.28000 220.000
25.32000 176.000
25.36000 175.000
25.40000 157.000
25.44000 177.000
25.48000 164.000
25.52000 197.000
25.56000 172.000
25.60000 163.000
25.64000 165.000
25.68000 165.000
25.72000 181.000
25.76000 168.000
25.80000 146.000
25.84000 163.000
25.88000 175.000
25.92000 182.000
25.96000 177.000
26.00000 151.000
26.04000 163.000
26.08000 167.000
26.12000 162.000
26.16000 173.000
26.20000 164.000
26.24000 154.000
26.28000 165.000
26.32000 157.000
26.36000 148.000
26.40000 165.000
26.44000 156.000
26.48000 171.000
26.52000 154.000
26.56000 159.000
26.60000 157.000
26.64000 136.000
26.68000 150.000
26.72000 183.000
26.76000 159.000
26.80000 152.000
26.84000 150.000
26.88000 145.000
26.92000 155.000
26.96000 185.000
27.00000 158.000
27.04000 150.000
27.08000 170.000
27.12000 158.000
27.16000 171.000
27.20000 160.000
27.24000 161.000
27.28000 159.000
27.32000 151.000
27.36000 161.000
27.40000 167.000
27.44000 171.000
27.48000 154.000
27.52000 176.000
27.56000 148.000
27.60000 152.000
27.64000 153.000
27.68000 179.000
27.72000 203.000
27.76000 165.000
27.80000 190.000
27.84000 194.000
27.88000 232.000
27.92000 187.000
27.96000 196.000
28.00000 201.000
28.04000 192.000
28.08000 168.000
28.12000 168.000
28.16000 192.000
28.20000 186.000
28.24000 175.000
28.28000 149.000
28.32000 177.000
28.36000 176.000
28.40000 170.000
28.44000 199.000
28.48000 193.000
28.52000 188.000
28.56000 205.000
28.60000 208.000
28.64000 234.000
28.68000 252.000
28.72000 287.000
28.76000 373.000
28.80000 476.000
28.84000 679.000
28.88000 882.000
28.92000 1284.000
28.96000 1791.000
29.00000 2493.000
29.04000 3211.000
29.08000 3475.000
29.12000 3035.000
29.16000 2271.000
29.20000 1518.000
29.24000 929.000
29.28000 608.000
29.32000 372.000
29.36000 267.000
29.40000 228.000
29.44000 194.000
29.48000 156.000
29.52000 187.000
29.56000 187.000
29.60000 153.000
29.64000 153.000
29.68000 142.000
29.72000 172.000
29.76000 142.000
29.80000 131.000
29.84000 132.000
29.88000 146.000
29.92000 157.000
29.96000 142.000
30.00000 125.000
30.04000 130.000
30.08000 123.000
30.12000 147.000
30.16000 143.000
30.20000 131.000
30.24000 125.000
30.28000 117.000
30.32000 129.000
30.36000 144.000
30.40000 115.000
30.44000 137.000
30.48000 124.000
30.52000 149.000
30.56000 140.000
30.60000 130.000
30.64000 154.000
30.68000 117.000
30.72000 112.000
30.76000 149.000
30.80000 150.000
30.84000 116.000
30.88000 135.000
30.92000 114.000
30.96000 132.000
31.00000 154.000
31.04000 129.000
31.08000 140.000
31.12000 157.000
31.16000 164.000
31.20000 178.000
31.24000 152.000
31.28000 148.000
31.32000 119.000
31.36000 140.000
31.40000 116.000
31.44000 137.000
31.48000 136.000
31.52000 137.000
31.56000 150.000
31.60000 134.000
31.64000 130.000
31.68000 136.000
31.72000 146.000
31.76000 129.000
31.80000 131.000
31.84000 149.000
31.88000 139.000
31.92000 142.000
31.96000 135.000
32.00000 147.000
32.04000 126.000
32.08000 142.000
32.12000 145.000
32.16000 190.000
32.20000 191.000
32.24000 230.000
32.28000 319.000
32.32000 351.000
32.36000 490.000
32.40000 717.000
32.44000 950.000
32.48000 1297.000
32.52000 1942.000
32.56000 2421.000
32.60000 2690.000
32.64000 2453.000
32.68000 1938.000
32.72000 1327.000
32.76000 851.000
32.80000 557.000
32.84000 358.000
32.88000 258.000
32.92000 183.000
32.96000 185.000
33.00000 134.000
33.04000 112.000
33.08000 113.000
33.12000 132.000
33.16000 113.000
33.20000 124.000
33.24000 120.000
33.28000 120.000
33.32000 117.000
33.36000 111.000
33.40000 114.000
33.44000 102.000
33.48000 111.000
33.52000 108.000
33.56000 108.000
33.60000 104.000
33.64000 101.000
33.68000 104.000
33.72000 107.000
33.76000 98.000
33.80000 117.000
33.84000 104.000
33.88000 102.000
33.92000 103.000
33.96000 100.000
34.00000 93.000
34.04000 97.000
34.08000 98.000
34.12000 105.000
34.16000 105.000
34.20000 91.000
34.24000 106.000
34.28000 89.000
34.32000 115.000
34.36000 87.000
34.40000 94.000
34.44000 94.000
34.48000 93.000
34.52000 108.000
34.56000 97.000
34.60000 94.000
34.64000 99.000
34.68000 78.000
34.72000 90.000
34.76000 91.000
34.80000 87.000
34.84000 96.000
34.88000 109.000
34.92000 94.000
34.96000 77.000
35.00000 87.000
35.04000 106.000
35.08000 100.000
35.12000 86.000
35.16000 99.000
35.20000 98.000
35.24000 101.000
35.28000 110.000
35.32000 102.000
35.36000 99.000
35.40000 87.000
35.44000 98.000
35.48000 93.000
35.52000 103.000
35.56000 107.000
35.60000 136.000
35.64000 179.000
35.68000 172.000
35.72000 231.000
35.76000 327.000
35.80000 328.000
35.84000 330.000
35.88000 294.000
35.92000 251.000
35.96000 179.000
36.00000 153.000
36.04000 135.000
36.08000 112.000
36.12000 77.000
36.16000 97.000
36.20000 97.000
36.24000 95.000
36.28000 94.000
36.32000 95.000
36.36000 86.000
36.40000 78.000
36.44000 80.000
36.48000 102.000
36.52000 93.000
36.56000 99.000
36.60000 89.000
36.64000 88.000
36.68000 71.000
36.72000 91.000
36.76000 74.000
36.80000 81.000
36.84000 84.000
36.88000 84.000
36.92000 85.000
36.96000 85.000
37.00000 72.000
37.04000 74.000
37.08000 89.000
37.12000 72.000
37.16000 78.000
37.20000 97.000
37.24000 79.000
37.28000 67.000
37.32000 74.000
37.36000 77.000
37.40000 93.000
37.44000 80.000
37.48000 93.000
37.52000 80.000
37.56000 76.000
37.60000 87.000
37.64000 83.000
37.68000 86.000
37.72000 88.000
37.76000 73.000
37.80000 84.000
37.84000 72.000
37.88000 80.000
37.92000 78.000
37.96000 66.000
38.00000 71.000
38.04000 78.000
38.08000 87.000
38.12000 85.000
38.16000 80.000
38.20000 74.000
38.24000 72.000
38.28000 71.000
38.32000 79.000
38.36000 79.000
38.40000 82.000
38.44000 74.000
38.48000 92.000
38.52000 79.000
38.56000 81.000
38.60000 55.000
38.64000 81.000
38.68000 60.000
38.72000 85.000
38.76000 66.000
38.80000 85.000
38.84000 92.000
38.88000 75.000
38.92000 79.000
38.96000 73.000
39.00000 79.000
39.04000 78.000
39.08000 75.000
39.12000 75.000
39.16000 76.000
39.20000 63.000
39.24000 80.000
39.28000 77.000
39.32000 95.000
39.36000 75.000
39.40000 79.000
39.44000 74.000
39.48000 77.000
39.52000 94.000
39.56000 83.000
39.60000 84.000
39.64000 65.000
39.68000 83.000
39.72000 76.000
39.76000 109.000
39.80000 104.000
39.84000 101.000
39.88000 91.000
39.92000 83.000
39.96000 74.000
40.00000 87.000
40.04000 92.000
40.08000 93.000
40.12000 90.000
40.16000 85.000
40.20000 63.000
40.24000 64.000
40.28000 67.000
40.32000 59.000
40.36000 73.000
40.40000 70.000
40.44000 75.000
40.48000 105.000
40.52000 85.000
40.56000 105.000
40.60000 97.000
40.64000 96.000
40.68000 93.000
40.72000 79.000
40.76000 77.000
40.80000 94.000
40.84000 104.000
40.88000 95.000
40.92000 99.000
40.96000 86.000
41.00000 89.000
41.04000 83.000
41.08000 95.000
41.12000 87.000
41.16000 117.000
41.20000 108.000
41.24000 109.000
41.28000 116.000
41.32000 137.000
41.36000 152.000
41.40000 188.000
41.44000 252.000
41.48000 335.000
41.52000 524.000
41.56000 664.000
41.60000 790.000
41.64000 638.000
41.68000 592.000
41.72000 474.000
41.76000 352.000
41.80000 233.000
41.84000 179.000
41.88000 144.000
41.92000 106.000
41.96000 104.000
42.00000 100.000
42.04000 85.000
42.08000 91.000
42.12000 76.000
42.16000 94.000
42.20000 87.000
42.24000 77.000
42.28000 78.000
42.32000 90.000
42.36000 66.000
42.40000 84.000
42.44000 86.000
42.48000 89.000
42.52000 80.000
42.56000 90.000
42.60000 96.000
42.64000 82.000
42.68000 77.000
42.72000 74.000
42.76000 91.000
42.80000 87.000
42.84000 74.000
42.88000 78.000
42.92000 96.000
42.96000 87.000
43.00000 96.000
43.04000 75.000
43.08000 76.000
43.12000 80.000
43.16000 65.000
43.20000 92.000
43.24000 90.000
43.28000 86.000
43.32000 93.000
43.36000 79.000
43.40000 88.000
43.44000 83.000
43.48000 79.000
43.52000 101.000
43.56000 95.000
43.60000 87.000
43.64000 82.000
43.68000 90.000
43.72000 79.000
43.76000 86.000
43.80000 107.000
43.84000 87.000
43.88000 103.000
43.92000 109.000
43.96000 131.000
44.00000 116.000
44.04000 151.000
44.08000 199.000
44.12000 243.000
44.16000 323.000
44.20000 424.000
44.24000 480.000
44.28000 500.000
44.32000 418.000
44.36000 397.000
44.40000 315.000
44.44000 219.000
44.48000 182.000
44.52000 115.000
44.56000 118.000
44.60000 91.000
44.64000 108.000
44.68000 72.000
44.72000 78.000
44.76000 90.000
44.80000 89.000
44.84000 87.000
44.88000 86.000
44.92000 80.000
44.96000 72.000
45.00000 68.000
45.04000 76.000
45.08000 85.000
45.12000 95.000
45.16000 77.000
45.20000 86.000
45.24000 85.000
45.28000 92.000
45.32000 82.000
45.36000 62.000
45.40000 70.000
45.44000 82.000
45.48000 84.000
45.52000 64.000
45.56000 71.000
45.60000 75.000
45.64000 72.000
45.68000 73.000
45.72000 82.000
45.76000 81.000
45.80000 76.000
45.84000 80.000
45.88000 72.000
45.92000 77.000
45.96000 73.000
46.00000 69.000
46.04000 86.000
46.08000 70.000
46.12000 76.000
46.16000 73.000
46.20000 70.000
46.24000 80.000
46.28000 94.000
46.32000 79.000
46.36000 80.000
46.40000 67.000
46.44000 66.000
46.48000 77.000
46.52000 77.000
46.56000 69.000
46.60000 84.000
46.64000 66.000
46.68000 86.000
46.72000 86.000
46.76000 92.000
46.80000 96.000
46.84000 100.000
46.88000 109.000
46.92000 95.000
46.96000 61.000
47.00000 85.000
47.04000 70.000
47.08000 75.000
47.12000 67.000
47.16000 68.000
47.20000 76.000
47.24000 69.000
47.28000 87.000
47.32000 71.000
47.36000 66.000
47.40000 61.000
47.44000 73.000
47.48000 72.000
47.52000 82.000
47.56000 77.000
47.60000 71.000
47.64000 79.000
47.68000 75.000
47.72000 77.000
47.76000 78.000
47.80000 72.000
47.84000 65.000
47.88000 61.000
47.92000 58.000
47.96000 70.000
48.00000 66.000
48.04000 69.000
48.08000 76.000
48.12000 66.000
48.16000 75.000
48.20000 70.000
48.24000 63.000
48.28000 65.000
48.32000 68.000
48.36000 74.000
48.40000 61.000
48.44000 77.000
48.48000 67.000
48.52000 73.000
48.56000 72.000
48.60000 57.000
48.64000 82.000
48.68000 72.000
48.72000 68.000
48.76000 64.000
48.80000 72.000
48.84000 64.000
48.88000 69.000
48.92000 69.000
48.96000 62.000
49.00000 73.000
49.04000 82.000
49.08000 91.000
49.12000 107.000
49.16000 113.000
49.20000 126.000
49.24000 141.000
49.28000 117.000
49.32000 109.000
49.36000 121.000
49.40000 86.000
49.44000 74.000
49.48000 65.000
49.52000 85.000
49.56000 67.000
49.60000 63.000
49.64000 59.000
49.68000 62.000
49.72000 70.000
49.76000 70.000
49.80000 66.000
49.84000 67.000
49.88000 61.000
49.92000 55.000
49.96000 72.000
50.00000 70.000
50.04000 67.000
50.08000 59.000
50.12000 60.000
50.16000 59.000
50.20000 67.000
50.24000 49.000
50.28000 72.000
50.32000 56.000
50.36000 68.000
50.40000 66.000
50.44000 52.000
50.48000 56.000
50.52000 63.000
50.56000 78.000
50.60000 73.000
50.64000 70.000
50.68000 60.000
50.72000 59.000
50.76000 78.000
50.80000 77.000
50.84000 73.000
50.88000 65.000
50.92000 57.000
50.96000 63.000
51.00000 62.000
51.04000 69.000
51.08000 70.000
51.12000 65.000
51.16000 71.000
51.20000 66.000
51.24000 70.000
51.28000 85.000
51.32000 88.000
51.36000 123.000
51.40000 134.000
51.44000 177.000
51.48000 252.000
51.52000 297.000
51.56000 353.000
51.60000 313.000
51.64000 325.000
51.68000 282.000
51.72000 219.000
51.76000 196.000
51.80000 136.000
51.84000 124.000
51.88000 84.000
51.92000 76.000
51.96000 72.000
52.00000 60.000
52.04000 76.000
52.08000 47.000
52.12000 62.000
52.16000 51.000
52.20000 60.000
52.24000 84.000
52.28000 70.000
52.32000 64.000
52.36000 61.000
52.40000 66.000
52.44000 61.000
52.48000 64.000
52.52000 62.000
52.56000 61.000
52.60000 70.000
52.64000 49.000
52.68000 65.000
52.72000 63.000
52.76000 67.000
52.80000 52.000
52.84000 73.000
52.88000 56.000
52.92000 46.000
52.96000 53.000
53.00000 57.000
53.04000 57.000
53.08000 67.000
53.12000 47.000
53.16000 48.000
53.20000 62.000
53.24000 66.000
53.28000 57.000
53.32000 65.000
53.36000 54.000
53.40000 63.000
53.44000 61.000
53.48000 62.000
53.52000 64.000
53.56000 64.000
53.60000 69.000
53.64000 61.000
53.68000 104.000
53.72000 99.000
53.76000 99.000
53.80000 130.000
53.84000 123.000
53.88000 128.000
53.92000 127.000
53.96000 107.000
54.00000 114.000
54.04000 94.000
54.08000 65.000
54.12000 62.000
54.16000 68.000
54.20000 64.000
54.24000 81.000
54.28000 48.000
54.32000 56.000
54.36000 66.000
54.40000 60.000
54.44000 51.000
54.48000 50.000
54.52000 45.000
54.56000 56.000
54.60000 63.000
54.64000 48.000
54.68000 64.000
54.72000 60.000
54.76000 59.000
54.80000 59.000
54.84000 62.000
54.88000 60.000
54.92000 53.000
54.96000 51.000
55.00000 65.000
55.04000 59.000
55.08000 62.000
55.12000 52.000
55.16000 56.000
55.20000 60.000
55.24000 50.000
55.28000 57.000
55.32000 51.000
55.36000 58.000
55.40000 52.000
55.44000 59.000
55.48000 70.000
55.52000 58.000
55.56000 55.000
55.60000 54.000
55.64000 66.000
55.68000 54.000
55.72000 69.000
55.76000 64.000
55.80000 71.000
55.84000 62.000
55.88000 61.000
55.92000 82.000
55.96000 73.000
56.00000 81.000
56.04000 87.000
56.08000 88.000
56.12000 102.000
56.16000 88.000
56.20000 84.000
56.24000 77.000
56.28000 79.000
56.32000 62.000
56.36000 65.000
56.40000 60.000
56.44000 58.000
56.48000 60.000
56.52000 55.000
56.56000 43.000
56.60000 49.000
56.64000 55.000
56.68000 58.000
56.72000 57.000
56.76000 60.000
56.80000 61.000
56.84000 57.000
56.88000 58.000
56.92000 62.000
56.96000 56.000
57.00000 45.000
57.04000 54.000
57.08000 48.000
57.12000 58.000
57.16000 53.000
57.20000 44.000
57.24000 48.000
57.28000 42.000
57.32000 52.000
57.36000 45.000
57.40000 58.000
57.44000 48.000
57.48000 50.000
57.52000 60.000
57.56000 57.000
57.60000 58.000
57.64000 62.000
57.68000 73.000
57.72000 49.000
57.76000 53.000
57.80000 53.000
57.84000 56.000
57.88000 49.000
57.92000 50.000
57.96000 53.000
58.00000 62.000
58.04000 43.000
58.08000 53.000
58.12000 59.000
58.16000 54.000
58.20000 35.000
58.24000 52.000
58.28000 59.000
58.32000 52.000
58.36000 53.000
58.40000 50.000
58.44000 46.000
58.48000 59.000
58.52000 58.000
58.56000 40.000
58.60000 43.000
58.64000 38.000
58.68000 59.000
58.72000 60.000
58.76000 42.000
58.80000 56.000
58.84000 54.000
58.88000 46.000
58.92000 65.000
58.96000 47.000
59.00000 60.000
59.04000 64.000
59.08000 44.000
59.12000 56.000
59.16000 50.000
59.20000 59.000
59.24000 46.000
59.28000 47.000
59.32000 46.000
59.36000 37.000
59.40000 51.000
59.44000 67.000
59.48000 39.000
59.52000 63.000
59.56000 56.000
59.60000 69.000
59.64000 61.000
59.68000 46.000
59.72000 35.000
59.76000 60.000
59.80000 55.000
59.84000 55.000
59.88000 55.000
59.92000 54.000