File: XRD/3.xy
5.00000 578.000
5.04000 592.000
5.08000 580.000
5.12000 575.000
5.16000 615.000
5.20000 558.000
5.24000 568.000
5.28000 558.000
5.32000 637.000
5.36000 564.000
5.40000 589.000
5.44000 604.000
5.48000 547.000
5.52000 557.000
5.56000 522.000
5.60000 545.000
5.64000 547.000
5.68000 561.000
5.72000 511.000
5.76000 522.000
5.80000 523.000
5.84000 514.000
5.88000 510.000
5.92000 483.000
5.96000 529.000
6.00000 502.000
6.04000 484.000
6.08000 481.000
6.12000 492.000
6.16000 475.000
6.20000 492.000
6.24000 437.000
6.28000 509.000
6.32000 478.000
6.36000 493.000
6.40000 444.000
6.44000 489.000
6.48000 463.000
6.52000 470.000
6.56000 461.000
6.60000 455.000
6.64000 466.000
6.68000 448.000
6.72000 501.000
6.76000 420.000
6.80000 442.000
6.84000 450.000
6.88000 446.000
6.92000 444.000
6.96000 412.000
7.00000 449.000
7.04000 430.000
7.08000 433.000
7.12000 397.000
7.16000 396.000
7.20000 441.000
7.24000 458.000
7.28000 399.000
7.32000 406.000
7.36000 406.000
7.40000 373.000
7.44000 384.000
7.48000 416.000
7.52000 379.000
7.56000 402.000
7.60000 408.000
7.64000 397.000
7.68000 392.000
7.72000 396.000
7.76000 402.000
7.80000 380.000
7.84000 343.000
7.88000 402.000
7.92000 345.000
7.96000 461.000
8.00000 332.000
8.04000 322.000
8.08000 353.000
8.12000 357.000
8.16000 339.000
8.20000 335.000
8.24000 334.000
8.28000 341.000
8.32000 327.000
8.36000 345.000
8.40000 316.000
8.44000 366.000
8.48000 333.000
8.52000 335.000
8.56000 330.000
8.60000 313.000
8.64000 357.000
8.68000 344.000
8.72000 345.000
8.76000 327.000
8.80000 365.000
8.84000 370.000
8.88000 330.000
8.92000 311.000
8.96000 309.000
9.00000 335.000
9.04000 334.000
9.08000 296.000
9.12000 323.000
9.16000 328.000
9.20000 317.000
9.24000 315.000
9.28000 317.000
9.32000 284.000
9.36000 308.000
9.40000 304.000
9.44000 325.000
9.48000 286.000
9.52000 299.000
9.56000 316.000
9.60000 284.000
9.64000 297.000
9.68000 327.000
9.72000 285.000
9.76000 301.000
9.80000 276.000
9.84000 286.000
9.88000 285.000
9.92000 288.000
9.96000 304.000
10.00000 284.000
10.04000 273.000
10.08000 259.000
10.12000 267.000
10.16000 275.000
10.20000 278.000
10.24000 290.000
10.28000 265.000
10.32000 288.000
10.36000 306.000
10.40000 277.000
10.44000 276.000
10.48000 241.000
10.52000 275.000
10.56000 259.000
10.60000 267.000
10.64000 263.000
10.68000 307.000
10.72000 267.000
10.76000 313.000
10.80000 276.000
10.84000 256.000
10.88000 296.000
10.92000 299.000
10.96000 292.000
11.00000 279.000
11.04000 287.000
11.08000 285.000
11.12000 336.000
11.16000 331.000
11.20000 332.000
11.24000 340.000
11.28000 425.000
11.32000 413.000
11.36000 432.000
11.40000 471.000
11.44000 542.000
11.48000 612.000
11.52000 644.000
11.56000 642.000
11.60000 577.000
11.64000 543.000
11.68000 541.000
11.72000 546.000
11.76000 567.000
11.80000 522.000
11.84000 555.000
11.88000 593.000
11.92000 534.000
11.96000 572.000
12.00000 592.000
12.04000 619.000
12.08000 653.000
12.12000 638.000
12.16000 643.000
12.20000 645.000
12.24000 684.000
12.28000 646.000
12.32000 653.000
12.36000 615.000
12.40000 645.000
12.44000 619.000
12.48000 595.000
12.52000 558.000
12.56000 579.000
12.60000 611.000
12.64000 588.000
12.68000 595.000
12.72000 591.000
12.76000 538.000
12.80000 571.000
12.84000 624.000
12.88000 544.000
12.92000 557.000
12.96000 564.000
13.00000 640.000
13.04000 609.000
13.08000 562.000
13.12000 643.000
13.16000 627.000
13.20000 656.000
13.24000 705.000
13.28000 700.000
13.32000 755.000
13.36000 805.000
13.40000 845.000
13.44000 901.000
13.48000 1020.000
13.52000 1050.000
13.56000 1095.000
13.60000 1219.000
13.64000 1345.000
13.68000 1463.000
13.72000 1641.000
13.76000 1783.000
13.80000 2028.000
13.84000 2367.000
13.88000 2577.000
13.92000 3017.000
13.96000 3323.000
14.00000 3516.000
14.04000 3580.000
14.08000 3138.000
14.12000 2554.000
14.16000 1912.000
14.20000 1537.000
14.24000 1131.000
14.28000 1015.000
14.32000 768.000
14.36000 686.000
14.40000 580.000
14.44000 501.000
14.48000 475.000
14.52000 429.000
14.56000 389.000
14.60000 354.000
14.64000 321.000
14.68000 317.000
14.72000 318.000
14.76000 283.000
14.80000 282.000
14.84000 258.000
14.88000 237.000
14.92000 244.000
14.96000 211.000
15.00000 239.000
15.04000 239.000
15.08000 192.000
15.12000 218.000
15.16000 212.000
15.20000 222.000
15.24000 218.000
15.28000 218.000
15.32000 218.000
15.36000 207.000
15.40000 219.000
15.44000 205.000
15.48000 197.000
15.52000 202.000
15.56000 202.000
15.60000 212.000
15.64000 210.000
15.68000 215.000
15.72000 193.000
15.76000 214.000
15.80000 181.000
15.84000 197.000
15.88000 217.000
15.92000 180.000
15.96000 185.000
16.00000 199.000
16.04000 184.000
16.08000 176.000
16.12000 200.000
16.16000 193.000
16.20000 204.000
16.24000 207.000
16.28000 212.000
16.32000 211.000
16.36000 187.000
16.40000 164.000
16.44000 186.000
16.48000 183.000
16.52000 181.000
16.56000 183.000
16.60000 188.000
16.64000 187.000
16.68000 189.000
16.72000 187.000
16.76000 174.000
16.80000 153.000
16.84000 183.000
16.88000 166.000
16.92000 205.000
16.96000 181.000
17.00000 191.000
17.04000 184.000
17.08000 175.000
17.12000 182.000
17.16000 195.000
17.20000 182.000
17.24000 188.000
17.28000 179.000
17.32000 175.000
17.36000 175.000
17.40000 208.000
17.44000 183.000
17.48000 180.000
17.52000 186.000
17.56000 183.000
17.60000 168.000
17.64000 176.000
17.68000 156.000
17.72000 192.000
17.76000 199.000
17.80000 180.000
17.84000 188.000
17.88000 182.000
17.92000 158.000
17.96000 163.000
18.00000 183.000
18.04000 178.000
18.08000 171.000
18.12000 172.000
18.16000 187.000
18.20000 165.000
18.24000 201.000
18.28000 157.000
18.32000 184.000
18.36000 186.000
18.40000 155.000
18.44000 174.000
18.48000 179.000
18.52000 185.000
18.56000 183.000
18.60000 183.000
18.64000 202.000
18.68000 154.000
18.72000 196.000
18.76000 203.000
18.80000 169.000
18.84000 183.000
18.88000 178.000
18.92000 183.000
18.96000 187.000
19.00000 195.000
19.04000 183.000
19.08000 170.000
19.12000 197.000
19.16000 211.000
19.20000 188.000
19.24000 193.000
19.28000 196.000
19.32000 184.000
19.36000 204.000
19.40000 188.000
19.44000 206.000
19.48000 219.000
19.52000 208.000
19.56000 239.000
19.60000 248.000
19.64000 284.000
19.68000 296.000
19.72000 313.000
19.76000 354.000
19.80000 450.000
19.84000 564.000
19.88000 617.000
19.92000 695.000
19.96000 759.000
20.00000 677.000
20.04000 511.000
20.08000 419.000
20.12000 344.000
20.16000 267.000
20.20000 210.000
20.24000 233.000
20.28000 205.000
20.32000 185.000
20.36000 194.000
20.40000 215.000
20.44000 174.000
20.48000 175.000
20.52000 191.000
20.56000 189.000
20.60000 170.000
20.64000 179.000
20.68000 180.000
20.72000 190.000
20.76000 180.000
20.80000 179.000
20.84000 180.000
20.88000 166.000
20.92000 176.000
20.96000 196.000
21.00000 183.000
21.04000 177.000
21.08000 191.000
21.12000 196.000
21.16000 182.000
21.20000 186.000
21.24000 174.000
21.28000 204.000
21.32000 180.000
21.36000 197.000
21.40000 175.000
21.44000 199.000
21.48000 175.000
21.52000 171.000
21.56000 210.000
21.60000 183.000
21.64000 195.000
21.68000 186.000
21.72000 191.000
21.76000 167.000
21.80000 188.000
21.84000 186.000
21.88000 175.000
21.92000 198.000
21.96000 161.000
22.00000 200.000
22.04000 185.000
22.08000 175.000
22.12000 199.000
22.16000 189.000
22.20000 184.000
22.24000 190.000
22.28000 193.000
22.32000 179.000
22.36000 182.000
22.40000 172.000
22.44000 165.000
22.48000 170.000
22.52000 175.000
22.56000 196.000
22.60000 165.000
22.64000 182.000
22.68000 187.000
22.72000 218.000
22.76000 173.000
22.80000 150.000
22.84000 185.000
22.88000 167.000
22.92000 165.000
22.96000 175.000
23.00000 156.000
23.04000 168.000
23.08000 160.000
23.12000 187.000
23.16000 178.000
23.20000 182.000
23.24000 185.000
23.28000 168.000
23.32000 196.000
23.36000 195.000
23.40000 195.000
23.44000 200.000
23.48000 172.000
23.52000 179.000
23.56000 179.000
23.60000 187.000
23.64000 179.000
23.68000 163.000
23.72000 181.000
23.76000 180.000
23.80000 193.000
23.84000 180.000
23.88000 205.000
23.92000 210.000
23.96000 201.000
24.00000 213.000
24.04000 247.000
24.08000 256.000
24.12000 257.000
24.16000 298.000
24.20000 318.000
24.24000 388.000
24.28000 440.000
24.32000 584.000
24.36000 676.000
24.40000 822.000
24.44000 893.000
24.48000 892.000
24.52000 895.000
24.56000 813.000
24.60000 648.000
24.64000 547.000
24.68000 533.000
24.72000 446.000
24.76000 351.000
24.80000 334.000
24.84000 293.000
24.88000 291.000
24.92000 257.000
24.96000 257.000
25.00000 248.000
25.04000 214.000
25.08000 240.000
25.12000 231.000
25.16000 226.000
25.20000 222.000
25.24000 220.000
25.28000 218.000
25.32000 195.000
25.36000 235.000
25.40000 212.000
25.44000 216.000
25.48000 230.000
25.52000 204.000
25.56000 192.000
25.60000 195.000
25.64000 207.000
25.68000 214.000
25.72000 207.000
25.76000 189.000
25.80000 193.000
25.84000 227.000
25.88000 190.000
25.92000 230.000
25.96000 223.000
26.00000 232.000
26.04000 269.000
26.08000 227.000
26.12000 237.000
26.16000 251.000
26.20000 252.000
26.24000 239.000
26.28000 229.000
26.32000 234.000
26.36000 215.000
26.40000 201.000
26.44000 205.000
26.48000 190.000
26.52000 188.000
26.56000 220.000
26.60000 201.000
26.64000 213.000
26.68000 198.000
26.72000 201.000
26.76000 197.000
26.80000 208.000
26.84000 202.000
26.88000 218.000
26.92000 213.000
26.96000 211.000
27.00000 250.000
27.04000 234.000
27.08000 205.000
27.12000 246.000
27.16000 278.000
27.20000 250.000
27.24000 253.000
27.28000 241.000
27.32000 277.000
27.36000 254.000
27.40000 292.000
27.44000 257.000
27.48000 304.000
27.52000 322.000
27.56000 282.000
27.60000 336.000
27.64000 330.000
27.68000 351.000
27.72000 378.000
27.76000 443.000
27.80000 467.000
27.84000 456.000
27.88000 540.000
27.92000 556.000
27.96000 643.000
28.00000 754.000
28.04000 800.000
28.08000 949.000
28.12000 1070.000
28.16000 1291.000
28.20000 1474.000
28.24000 1670.000
28.28000 1922.000
28.32000 2140.000
28.36000 2048.000
28.40000 1881.000
28.44000 1525.000
28.48000 1217.000
28.52000 979.000
28.56000 764.000
28.60000 625.000
28.64000 540.000
28.68000 456.000
28.72000 362.000
28.76000 372.000
28.80000 318.000
28.84000 311.000
28.88000 310.000
28.92000 273.000
28.96000 235.000
29.00000 230.000
29.04000 243.000
29.08000 270.000
29.12000 222.000
29.16000 238.000
29.20000 219.000
29.24000 221.000
29.28000 178.000
29.32000 207.000
29.36000 180.000
29.40000 197.000
29.44000 194.000
29.48000 167.000
29.52000 193.000
29.56000 155.000
29.60000 190.000
29.64000 178.000
29.68000 169.000
29.72000 145.000
29.76000 194.000
29.80000 177.000
29.84000 167.000
29.88000 164.000
29.92000 167.000
29.96000 146.000
30.00000 156.000
30.04000 173.000
30.08000 160.000
30.12000 160.000
30.16000 156.000
30.20000 170.000
30.24000 170.000
30.28000 189.000
30.32000 152.000
30.36000 175.000
30.40000 174.000
30.44000 189.000
30.48000 189.000
30.52000 186.000
30.56000 179.000
30.60000 161.000
30.64000 179.000
30.68000 169.000
30.72000 183.000
30.76000 194.000
30.80000 186.000
30.84000 193.000
30.88000 199.000
30.92000 199.000
30.96000 198.000
31.00000 234.000
31.04000 240.000
31.08000 253.000
31.12000 259.000
31.16000 236.000
31.20000 299.000
31.24000 306.000
31.28000 288.000
31.32000 335.000
31.36000 375.000
31.40000 402.000
31.44000 514.000
31.48000 597.000
31.52000 629.000
31.56000 866.000
31.60000 1027.000
31.64000 1335.000
31.68000 1539.000
31.72000 1825.000
31.76000 1962.000
31.80000 1939.000
31.84000 1757.000
31.88000 1352.000
31.92000 1114.000
31.96000 849.000
32.00000 652.000
32.04000 552.000
32.08000 367.000
32.12000 394.000
32.16000 288.000
32.20000 235.000
32.24000 234.000
32.28000 219.000
32.32000 214.000
32.36000 166.000
32.40000 186.000
32.44000 168.000
32.48000 154.000
32.52000 133.000
32.56000 138.000
32.60000 120.000
32.64000 146.000
32.68000 154.000
32.72000 137.000
32.76000 158.000
32.80000 127.000
32.84000 120.000
32.88000 131.000
32.92000 131.000
32.96000 122.000
33.00000 111.000
33.04000 142.000
33.08000 126.000
33.12000 124.000
33.16000 116.000
33.20000 123.000
33.24000 103.000
33.28000 109.000
33.32000 118.000
33.36000 117.000
33.40000 109.000
33.44000 135.000
33.48000 93.000
33.52000 91.000
33.56000 112.000
33.60000 109.000
33.64000 110.000
33.68000 96.000
33.72000 108.000
33.76000 118.000
33.80000 111.000
33.84000 103.000
33.88000 122.000
33.92000 94.000
33.96000 99.000
34.00000 117.000
34.04000 117.000
34.08000 124.000
34.12000 91.000
34.16000 111.000
34.20000 98.000
34.24000 109.000
34.28000 101.000
34.32000 108.000
34.36000 115.000
34.40000 130.000
34.44000 115.000
34.48000 99.000
34.52000 92.000
34.56000 129.000
34.60000 137.000
34.64000 139.000
34.68000 149.000
34.72000 174.000
34.76000 219.000
34.80000 242.000
34.84000 282.000
34.88000 358.000
34.92000 419.000
34.96000 364.000
35.00000 322.000
35.04000 277.000
35.08000 272.000
35.12000 216.000
35.16000 178.000
35.20000 183.000
35.24000 125.000
35.28000 131.000
35.32000 136.000
35.36000 152.000
35.40000 113.000
35.44000 91.000
35.48000 100.000
35.52000 83.000
35.56000 83.000
35.60000 90.000
35.64000 115.000
35.68000 122.000
35.72000 99.000
35.76000 106.000
35.80000 114.000
35.84000 108.000
35.88000 82.000
35.92000 92.000
35.96000 96.000
36.00000 94.000
36.04000 96.000
36.08000 113.000
36.12000 99.000
36.16000 99.000
36.20000 109.000
36.24000 88.000
36.28000 105.000
36.32000 95.000
36.36000 100.000
36.40000 116.000
36.44000 94.000
36.48000 100.000
36.52000 106.000
36.56000 109.000
36.60000 110.000
36.64000 87.000
36.68000 90.000
36.72000 98.000
36.76000 102.000
36.80000 110.000
36.84000 109.000
36.88000 89.000
36.92000 92.000
36.96000 87.000
37.00000 82.000
37.04000 97.000
37.08000 76.000
37.12000 99.000
37.16000 91.000
37.20000 81.000
37.24000 99.000
37.28000 94.000
37.32000 92.000
37.36000 94.000
37.40000 104.000
37.44000 83.000
37.48000 96.000
37.52000 102.000
37.56000 83.000
37.60000 98.000
37.64000 74.000
37.68000 92.000
37.72000 86.000
37.76000 73.000
37.80000 82.000
37.84000 89.000
37.88000 94.000
37.92000 89.000
37.96000 77.000
38.00000 106.000
38.04000 95.000
38.08000 98.000
38.12000 72.000
38.16000 85.000
38.20000 89.000
38.24000 96.000
38.28000 88.000
38.32000 97.000
38.36000 100.000
38.40000 96.000
38.44000 83.000
38.48000 106.000
38.52000 93.000
38.56000 105.000
38.60000 117.000
38.64000 98.000
38.68000 122.000
38.72000 107.000
38.76000 99.000
38.80000 123.000
38.84000 89.000
38.88000 98.000
38.92000 116.000
38.96000 115.000
39.00000 98.000
39.04000 107.000
39.08000 88.000
39.12000 122.000
39.16000 91.000
39.20000 109.000
39.24000 91.000
39.28000 110.000
39.32000 94.000
39.36000 103.000
39.40000 116.000
39.44000 107.000
39.48000 117.000
39.52000 102.000
39.56000 105.000
39.60000 117.000
39.64000 106.000
39.68000 118.000
39.72000 110.000
39.76000 121.000
39.80000 129.000
39.84000 119.000
39.88000 106.000
39.92000 100.000
39.96000 113.000
40.00000 120.000
40.04000 130.000
40.08000 137.000
40.12000 144.000
40.16000 149.000
40.20000 166.000
40.24000 201.000
40.28000 238.000
40.32000 267.000
40.36000 317.000
40.40000 450.000
40.44000 649.000
40.48000 803.000
40.52000 927.000
40.56000 955.000
40.60000 935.000
40.64000 863.000
40.68000 728.000
40.72000 595.000
40.76000 519.000
40.80000 377.000
40.84000 331.000
40.88000 263.000
40.92000 190.000
40.96000 172.000
41.00000 170.000
41.04000 141.000
41.08000 135.000
41.12000 120.000
41.16000 132.000
41.20000 144.000
41.24000 119.000
41.28000 116.000
41.32000 107.000
41.36000 122.000
41.40000 139.000
41.44000 120.000
41.48000 116.000
41.52000 113.000
41.56000 104.000
41.60000 116.000
41.64000 115.000
41.68000 123.000
41.72000 108.000
41.76000 112.000
41.80000 136.000
41.84000 126.000
41.88000 121.000
41.92000 116.000
41.96000 100.000
42.00000 100.000
42.04000 129.000
42.08000 125.000
42.12000 117.000
42.16000 104.000
42.20000 126.000
42.24000 107.000
42.28000 121.000
42.32000 118.000
42.36000 90.000
42.40000 114.000
42.44000 120.000
42.48000 125.000
42.52000 145.000
42.56000 151.000
42.60000 144.000
42.64000 156.000
42.68000 155.000
42.72000 164.000
42.76000 216.000
42.80000 224.000
42.84000 272.000
42.88000 351.000
42.92000 421.000
42.96000 531.000
43.00000 732.000
43.04000 791.000
43.08000 884.000
43.12000 902.000
43.16000 836.000
43.20000 741.000
43.24000 562.000
43.28000 470.000
43.32000 406.000
43.36000 314.000
43.40000 259.000
43.44000 250.000
43.48000 207.000
43.52000 192.000
43.56000 146.000
43.60000 153.000
43.64000 144.000
43.68000 118.000
43.72000 118.000
43.76000 107.000
43.80000 109.000
43.84000 94.000
43.88000 100.000
43.92000 84.000
43.96000 107.000
44.00000 85.000
44.04000 96.000
44.08000 90.000
44.12000 102.000
44.16000 90.000
44.20000 103.000
44.24000 108.000
44.28000 94.000
44.32000 82.000
44.36000 92.000
44.40000 94.000
44.44000 77.000
44.48000 103.000
44.52000 89.000
44.56000 81.000
44.60000 88.000
44.64000 78.000
44.68000 83.000
44.72000 97.000
44.76000 89.000
44.80000 89.000
44.84000 86.000
44.88000 91.000
44.92000 70.000
44.96000 85.000
45.00000 87.000
45.04000 75.000
45.08000 81.000
45.12000 111.000
45.16000 90.000
45.20000 83.000
45.24000 78.000
45.28000 94.000
45.32000 86.000
45.36000 78.000
45.40000 87.000
45.44000 84.000
45.48000 90.000
45.52000 104.000
45.56000 91.000
45.60000 104.000
45.64000 103.000
45.68000 101.000
45.72000 121.000
45.76000 113.000
45.80000 104.000
45.84000 66.000
45.88000 79.000
45.92000 81.000
45.96000 86.000
46.00000 84.000
46.04000 90.000
46.08000 74.000
46.12000 84.000
46.16000 91.000
46.20000 81.000
46.24000 59.000
46.28000 69.000
46.32000 67.000
46.36000 69.000
46.40000 94.000
46.44000 73.000
46.48000 83.000
46.52000 75.000
46.56000 81.000
46.60000 59.000
46.64000 84.000
46.68000 85.000
46.72000 79.000
46.76000 62.000
46.80000 75.000
46.84000 79.000
46.88000 68.000
46.92000 69.000
46.96000 62.000
47.00000 72.000
47.04000 79.000
47.08000 88.000
47.12000 74.000
47.16000 66.000
47.20000 77.000
47.24000 75.000
47.28000 73.000
47.32000 73.000
47.36000 78.000
47.40000 73.000
47.44000 77.000
47.48000 67.000
47.52000 65.000
47.56000 67.000
47.60000 72.000
47.64000 62.000
47.68000 85.000
47.72000 78.000
47.76000 75.000
47.80000 95.000
47.84000 95.000
47.88000 103.000
47.92000 91.000
47.96000 97.000
48.00000 103.000
48.04000 87.000
48.08000 72.000
48.12000 78.000
48.16000 96.000
48.20000 75.000
48.24000 70.000
48.28000 70.000
48.32000 76.000
48.36000 77.000
48.40000 78.000
48.44000 78.000
48.48000 82.000
48.52000 63.000
48.56000 77.000
48.60000 71.000
48.64000 62.000
48.68000 69.000
48.72000 77.000
48.76000 70.000
48.80000 60.000
48.84000 66.000
48.88000 73.000
48.92000 82.000
48.96000 89.000
49.00000 60.000
49.04000 68.000
49.08000 67.000
49.12000 81.000
49.16000 76.000
49.20000 80.000
49.24000 65.000
49.28000 78.000
49.32000 70.000
49.36000 84.000
49.40000 71.000
49.44000 76.000
49.48000 77.000
49.52000 74.000
49.56000 93.000
49.60000 78.000
49.64000 71.000
49.68000 64.000
49.72000 77.000
49.76000 75.000
49.80000 91.000
49.84000 78.000
49.88000 101.000
49.92000 123.000
49.96000 116.000
50.00000 136.000
50.04000 141.000
50.08000 149.000
50.12000 190.000
50.16000 201.000
50.20000 238.000
50.24000 194.000
50.28000 211.000
50.32000 195.000
50.36000 171.000
50.40000 175.000
50.44000 173.000
50.48000 127.000
50.52000 120.000
50.56000 105.000
50.60000 96.000
50.64000 100.000
50.68000 109.000
50.72000 86.000
50.76000 84.000
50.80000 71.000
50.84000 72.000
50.88000 91.000
50.92000 78.000
50.96000 68.000
51.00000 81.000
51.04000 68.000
51.08000 78.000
51.12000 74.000
51.16000 71.000
51.20000 77.000
51.24000 72.000
51.28000 53.000
51.32000 77.000
51.36000 74.000
51.40000 61.000
51.44000 78.000
51.48000 80.000
51.52000 63.000
51.56000 68.000
51.60000 72.000
51.64000 84.000
51.68000 76.000
51.72000 66.000
51.76000 72.000
51.80000 75.000
51.84000 87.000
51.88000 75.000
51.92000 83.000
51.96000 87.000
52.00000 81.000
52.04000 100.000
52.08000 91.000
52.12000 104.000
52.16000 123.000
52.20000 109.000
52.24000 141.000
52.28000 170.000
52.32000 176.000
52.36000 198.000
52.40000 235.000
52.44000 208.000
52.48000 181.000
52.52000 206.000
52.56000 156.000
52.60000 157.000
52.64000 142.000
52.68000 116.000
52.72000 112.000
52.76000 78.000
52.80000 83.000
52.84000 81.000
52.88000 97.000
52.92000 109.000
52.96000 59.000
53.00000 86.000
53.04000 73.000
53.08000 73.000
53.12000 67.000
53.16000 66.000
53.20000 74.000
53.24000 66.000
53.28000 78.000
53.32000 73.000
53.36000 62.000
53.40000 68.000
53.44000 65.000
53.48000 72.000
53.52000 59.000
53.56000 53.000
53.60000 73.000
53.64000 48.000
53.68000 53.000
53.72000 56.000
53.76000 63.000
53.80000 58.000
53.84000 60.000
53.88000 63.000
53.92000 62.000
53.96000 46.000
54.00000 53.000
54.04000 61.000
54.08000 67.000
54.12000 63.000
54.16000 67.000
54.20000 57.000
54.24000 50.000
54.28000 56.000
54.32000 83.000
54.36000 74.000
54.40000 79.000
54.44000 80.000
54.48000 83.000
54.52000 105.000
54.56000 88.000
54.60000 106.000
54.64000 86.000
54.68000 110.000
54.72000 87.000
54.76000 70.000
54.80000 77.000
54.84000 82.000
54.88000 65.000
54.92000 77.000
54.96000 68.000
55.00000 71.000
55.04000 56.000
55.08000 65.000
55.12000 52.000
55.16000 52.000
55.20000 47.000
55.24000 74.000
55.28000 58.000
55.32000 69.000
55.36000 69.000
55.40000 46.000
55.44000 53.000
55.48000 55.000
55.52000 69.000
55.56000 56.000
55.60000 61.000
55.64000 53.000
55.68000 48.000
55.72000 48.000
55.76000 67.000
55.80000 47.000
55.84000 59.000
55.88000 60.000
55.92000 65.000
55.96000 53.000
56.00000 60.000
56.04000 64.000
56.08000 55.000
56.12000 63.000
56.16000 56.000
56.20000 59.000
56.24000 61.000
56.28000 61.000
56.32000 62.000
56.36000 58.000
56.40000 62.000
56.44000 58.000
56.48000 60.000
56.52000 51.000
56.56000 59.000
56.60000 43.000
56.64000 52.000
56.68000 51.000
56.72000 63.000
56.76000 51.000
56.80000 51.000
56.84000 58.000
56.88000 48.000
56.92000 57.000
56.96000 62.000
57.00000 54.000
57.04000 74.000
57.08000 55.000
57.12000 44.000
57.16000 52.000
57.20000 64.000
57.24000 57.000
57.28000 55.000
57.32000 49.000
57.36000 56.000
57.40000 68.000
57.44000 56.000
57.48000 57.000
57.52000 49.000
57.56000 70.000
57.60000 58.000
57.64000 58.000
57.68000 64.000
57.72000 61.000
57.76000 55.000
57.80000 56.000
57.84000 74.000
57.88000 62.000
57.92000 57.000
57.96000 69.000
58.00000 71.000
58.04000 74.000
58.08000 48.000
58.12000 62.000
58.16000 48.000
58.20000 75.000
58.24000 69.000
58.28000 81.000
58.32000 77.000
58.36000 78.000
58.40000 88.000
58.44000 64.000
58.48000 85.000
58.52000 82.000
58.56000 78.000
58.60000 106.000
58.64000 126.000
58.68000 97.000
58.72000 89.000
58.76000 95.000
58.80000 97.000
58.84000 85.000
58.88000 102.000
58.92000 76.000
58.96000 72.000
59.00000 80.000
59.04000 51.000
59.08000 65.000
59.12000 73.000
59.16000 75.000
59.20000 66.000
59.24000 60.000
59.28000 55.000
59.32000 68.000
59.36000 63.000
59.40000 58.000
59.44000 66.000
59.48000 63.000
59.52000 75.000
59.56000 74.000
59.60000 57.000
59.64000 66.000
59.68000 69.000
59.72000 57.000
59.76000 60.000
59.80000 51.000
59.84000 63.000
59.88000 71.000
59.92000 67.000