File: XRD/30.xy
5.00000 523.000
5.04000 525.000
5.08000 492.000
5.12000 496.000
5.16000 522.000
5.20000 486.000
5.24000 475.000
5.28000 493.000
5.32000 449.000
5.36000 470.000
5.40000 473.000
5.44000 451.000
5.48000 463.000
5.52000 448.000
5.56000 440.000
5.60000 469.000
5.64000 447.000
5.68000 429.000
5.72000 439.000
5.76000 414.000
5.80000 435.000
5.84000 423.000
5.88000 424.000
5.92000 417.000
5.96000 424.000
6.00000 415.000
6.04000 428.000
6.08000 422.000
6.12000 443.000
6.16000 414.000
6.20000 436.000
6.24000 447.000
6.28000 432.000
6.32000 406.000
6.36000 410.000
6.40000 409.000
6.44000 396.000
6.48000 405.000
6.52000 401.000
6.56000 408.000
6.60000 369.000
6.64000 393.000
6.68000 381.000
6.72000 372.000
6.76000 348.000
6.80000 384.000
6.84000 384.000
6.88000 342.000
6.92000 368.000
6.96000 352.000
7.00000 370.000
7.04000 336.000
7.08000 338.000
7.12000 364.000
7.16000 321.000
7.20000 358.000
7.24000 354.000
7.28000 310.000
7.32000 344.000
7.36000 364.000
7.40000 349.000
7.44000 325.000
7.48000 319.000
7.52000 309.000
7.56000 333.000
7.60000 346.000
7.64000 311.000
7.68000 328.000
7.72000 324.000
7.76000 285.000
7.80000 310.000
7.84000 320.000
7.88000 315.000
7.92000 290.000
7.96000 315.000
8.00000 310.000
8.04000 333.000
8.08000 301.000
8.12000 298.000
8.16000 316.000
8.20000 311.000
8.24000 308.000
8.28000 316.000
8.32000 301.000
8.36000 319.000
8.40000 289.000
8.44000 309.000
8.48000 301.000
8.52000 273.000
8.56000 306.000
8.60000 271.000
8.64000 300.000
8.68000 268.000
8.72000 294.000
8.76000 279.000
8.80000 292.000
8.84000 252.000
8.88000 274.000
8.92000 263.000
8.96000 264.000
9.00000 275.000
9.04000 268.000
9.08000 271.000
9.12000 284.000
9.16000 259.000
9.20000 281.000
9.24000 265.000
9.28000 236.000
9.32000 244.000
9.36000 244.000
9.40000 241.000
9.44000 275.000
9.48000 267.000
9.52000 266.000
9.56000 258.000
9.60000 263.000
9.64000 252.000
9.68000 274.000
9.72000 251.000
9.76000 246.000
9.80000 267.000
9.84000 256.000
9.88000 256.000
9.92000 257.000
9.96000 260.000
10.00000 229.000
10.04000 245.000
10.08000 249.000
10.12000 249.000
10.16000 263.000
10.20000 240.000
10.24000 206.000
10.28000 224.000
10.32000 232.000
10.36000 227.000
10.40000 229.000
10.44000 245.000
10.48000 242.000
10.52000 227.000
10.56000 238.000
10.60000 223.000
10.64000 246.000
10.68000 213.000
10.72000 226.000
10.76000 218.000
10.80000 220.000
10.84000 223.000
10.88000 230.000
10.92000 217.000
10.96000 229.000
11.00000 209.000
11.04000 189.000
11.08000 228.000
11.12000 212.000
11.16000 215.000
11.20000 212.000
11.24000 228.000
11.28000 230.000
11.32000 226.000
11.36000 203.000
11.40000 224.000
11.44000 207.000
11.48000 237.000
11.52000 222.000
11.56000 204.000
11.60000 230.000
11.64000 225.000
11.68000 221.000
11.72000 210.000
11.76000 219.000
11.80000 200.000
11.84000 202.000
11.88000 207.000
11.92000 193.000
11.96000 214.000
12.00000 241.000
12.04000 194.000
12.08000 210.000
12.12000 195.000
12.16000 185.000
12.20000 196.000
12.24000 209.000
12.28000 221.000
12.32000 195.000
12.36000 204.000
12.40000 208.000
12.44000 218.000
12.48000 219.000
12.52000 209.000
12.56000 205.000
12.60000 173.000
12.64000 187.000
12.68000 196.000
12.72000 196.000
12.76000 215.000
12.80000 182.000
12.84000 216.000
12.88000 200.000
12.92000 211.000
12.96000 191.000
13.00000 195.000
13.04000 202.000
13.08000 194.000
13.12000 218.000
13.16000 211.000
13.20000 199.000
13.24000 189.000
13.28000 196.000
13.32000 199.000
13.36000 209.000
13.40000 229.000
13.44000 212.000
13.48000 216.000
13.52000 185.000
13.56000 203.000
13.60000 229.000
13.64000 249.000
13.68000 248.000
13.72000 271.000
13.76000 264.000
13.80000 287.000
13.84000 288.000
13.88000 312.000
13.92000 329.000
13.96000 374.000
14.00000 435.000
14.04000 394.000
14.08000 466.000
14.12000 521.000
14.16000 564.000
14.20000 635.000
14.24000 670.000
14.28000 757.000
14.32000 886.000
14.36000 1084.000
14.40000 1238.000
14.44000 1364.000
14.48000 1243.000
14.52000 1100.000
14.56000 774.000
14.60000 527.000
14.64000 423.000
14.68000 329.000
14.72000 289.000
14.76000 224.000
14.80000 227.000
14.84000 201.000
14.88000 213.000
14.92000 201.000
14.96000 181.000
15.00000 202.000
15.04000 206.000
15.08000 191.000
15.12000 187.000
15.16000 152.000
15.20000 163.000
15.24000 177.000
15.28000 172.000
15.32000 163.000
15.36000 191.000
15.40000 173.000
15.44000 162.000
15.48000 195.000
15.52000 161.000
15.56000 156.000
15.60000 156.000
15.64000 178.000
15.68000 151.000
15.72000 146.000
15.76000 166.000
15.80000 155.000
15.84000 177.000
15.88000 161.000
15.92000 147.000
15.96000 159.000
16.00000 162.000
16.04000 173.000
16.08000 136.000
16.12000 149.000
16.16000 177.000
16.20000 166.000
16.24000 142.000
16.28000 150.000
16.32000 164.000
16.36000 161.000
16.40000 164.000
16.44000 142.000
16.48000 144.000
16.52000 157.000
16.56000 140.000
16.60000 139.000
16.64000 170.000
16.68000 138.000
16.72000 146.000
16.76000 156.000
16.80000 154.000
16.84000 140.000
16.88000 142.000
16.92000 172.000
16.96000 146.000
17.00000 158.000
17.04000 128.000
17.08000 160.000
17.12000 133.000
17.16000 151.000
17.20000 133.000
17.24000 142.000
17.28000 158.000
17.32000 146.000
17.36000 148.000
17.40000 146.000
17.44000 161.000
17.48000 127.000
17.52000 157.000
17.56000 144.000
17.60000 139.000
17.64000 136.000
17.68000 166.000
17.72000 133.000
17.76000 171.000
17.80000 147.000
17.84000 156.000
17.88000 136.000
17.92000 162.000
17.96000 149.000
18.00000 171.000
18.04000 146.000
18.08000 151.000
18.12000 163.000
18.16000 151.000
18.20000 169.000
18.24000 165.000
18.28000 171.000
18.32000 134.000
18.36000 146.000
18.40000 150.000
18.44000 149.000
18.48000 131.000
18.52000 170.000
18.56000 143.000
18.60000 137.000
18.64000 162.000
18.68000 168.000
18.72000 136.000
18.76000 156.000
18.80000 148.000
18.84000 142.000
18.88000 157.000
18.92000 177.000
18.96000 154.000
19.00000 165.000
19.04000 158.000
19.08000 159.000
19.12000 153.000
19.16000 171.000
19.20000 147.000
19.24000 176.000
19.28000 151.000
19.32000 153.000
19.36000 173.000
19.40000 174.000
19.44000 162.000
19.48000 178.000
19.52000 166.000
19.56000 155.000
19.60000 181.000
19.64000 161.000
19.68000 160.000
19.72000 186.000
19.76000 169.000
19.80000 141.000
19.84000 194.000
19.88000 186.000
19.92000 178.000
19.96000 179.000
20.00000 199.000
20.04000 198.000
20.08000 216.000
20.12000 226.000
20.16000 234.000
20.20000 262.000
20.24000 267.000
20.28000 309.000
20.32000 345.000
20.36000 450.000
20.40000 532.000
20.44000 666.000
20.48000 761.000
20.52000 877.000
20.56000 800.000
20.60000 594.000
20.64000 433.000
20.68000 366.000
20.72000 287.000
20.76000 232.000
20.80000 220.000
20.84000 194.000
20.88000 167.000
20.92000 190.000
20.96000 167.000
21.00000 169.000
21.04000 170.000
21.08000 166.000
21.12000 173.000
21.16000 172.000
21.20000 149.000
21.24000 167.000
21.28000 171.000
21.32000 177.000
21.36000 168.000
21.40000 144.000
21.44000 179.000
21.48000 178.000
21.52000 159.000
21.56000 159.000
21.60000 192.000
21.64000 161.000
21.68000 172.000
21.72000 164.000
21.76000 191.000
21.80000 194.000
21.84000 188.000
21.88000 182.000
21.92000 166.000
21.96000 172.000
22.00000 171.000
22.04000 174.000
22.08000 173.000
22.12000 161.000
22.16000 158.000
22.20000 161.000
22.24000 189.000
22.28000 176.000
22.32000 199.000
22.36000 171.000
22.40000 164.000
22.44000 173.000
22.48000 175.000
22.52000 169.000
22.56000 161.000
22.60000 174.000
22.64000 183.000
22.68000 150.000
22.72000 198.000
22.76000 187.000
22.80000 181.000
22.84000 173.000
22.88000 166.000
22.92000 189.000
22.96000 173.000
23.00000 180.000
23.04000 173.000
23.08000 166.000
23.12000 169.000
23.16000 198.000
23.20000 171.000
23.24000 190.000
23.28000 170.000
23.32000 205.000
23.36000 189.000
23.40000 184.000
23.44000 181.000
23.48000 191.000
23.52000 168.000
23.56000 183.000
23.60000 169.000
23.64000 221.000
23.68000 189.000
23.72000 195.000
23.76000 174.000
23.80000 199.000
23.84000 183.000
23.88000 185.000
23.92000 177.000
23.96000 197.000
24.00000 206.000
24.04000 203.000
24.08000 178.000
24.12000 215.000
24.16000 245.000
24.20000 189.000
24.24000 207.000
24.28000 182.000
24.32000 182.000
24.36000 172.000
24.40000 216.000
24.44000 193.000
24.48000 215.000
24.52000 192.000
24.56000 192.000
24.60000 201.000
24.64000 204.000
24.68000 204.000
24.72000 212.000
24.76000 241.000
24.80000 249.000
24.84000 292.000
24.88000 319.000
24.92000 350.000
24.96000 396.000
25.00000 485.000
25.04000 592.000
25.08000 733.000
25.12000 989.000
25.16000 1161.000
25.20000 1367.000
25.24000 1303.000
25.28000 1114.000
25.32000 843.000
25.36000 578.000
25.40000 381.000
25.44000 324.000
25.48000 248.000
25.52000 175.000
25.56000 203.000
25.60000 192.000
25.64000 197.000
25.68000 193.000
25.72000 166.000
25.76000 192.000
25.80000 185.000
25.84000 188.000
25.88000 192.000
25.92000 197.000
25.96000 175.000
26.00000 156.000
26.04000 137.000
26.08000 191.000
26.12000 164.000
26.16000 185.000
26.20000 177.000
26.24000 177.000
26.28000 179.000
26.32000 187.000
26.36000 172.000
26.40000 178.000
26.44000 201.000
26.48000 169.000
26.52000 171.000
26.56000 159.000
26.60000 189.000
26.64000 166.000
26.68000 162.000
26.72000 156.000
26.76000 159.000
26.80000 164.000
26.84000 162.000
26.88000 175.000
26.92000 162.000
26.96000 167.000
27.00000 175.000
27.04000 169.000
27.08000 153.000
27.12000 153.000
27.16000 168.000
27.20000 149.000
27.24000 136.000
27.28000 176.000
27.32000 162.000
27.36000 175.000
27.40000 178.000
27.44000 135.000
27.48000 142.000
27.52000 158.000
27.56000 139.000
27.60000 147.000
27.64000 160.000
27.68000 169.000
27.72000 182.000
27.76000 155.000
27.80000 174.000
27.84000 179.000
27.88000 159.000
27.92000 154.000
27.96000 164.000
28.00000 167.000
28.04000 163.000
28.08000 167.000
28.12000 156.000
28.16000 172.000
28.20000 129.000
28.24000 152.000
28.28000 167.000
28.32000 164.000
28.36000 146.000
28.40000 161.000
28.44000 160.000
28.48000 156.000
28.52000 155.000
28.56000 148.000
28.60000 160.000
28.64000 150.000
28.68000 152.000
28.72000 187.000
28.76000 156.000
28.80000 218.000
28.84000 202.000
28.88000 235.000
28.92000 262.000
28.96000 345.000
29.00000 455.000
29.04000 528.000
29.08000 717.000
29.12000 899.000
29.16000 1117.000
29.20000 1199.000
29.24000 1137.000
29.28000 976.000
29.32000 743.000
29.36000 560.000
29.40000 362.000
29.44000 261.000
29.48000 207.000
29.52000 168.000
29.56000 143.000
29.60000 150.000
29.64000 136.000
29.68000 122.000
29.72000 150.000
29.76000 126.000
29.80000 117.000
29.84000 120.000
29.88000 119.000
29.92000 115.000
29.96000 134.000
30.00000 141.000
30.04000 133.000
30.08000 117.000
30.12000 109.000
30.16000 131.000
30.20000 141.000
30.24000 140.000
30.28000 137.000
30.32000 124.000
30.36000 111.000
30.40000 120.000
30.44000 99.000
30.48000 124.000
30.52000 118.000
30.56000 130.000
30.60000 128.000
30.64000 112.000
30.68000 120.000
30.72000 130.000
30.76000 120.000
30.80000 119.000
30.84000 108.000
30.88000 117.000
30.92000 130.000
30.96000 100.000
31.00000 114.000
31.04000 115.000
31.08000 123.000
31.12000 152.000
31.16000 127.000
31.20000 145.000
31.24000 141.000
31.28000 145.000
31.32000 136.000
31.36000 112.000
31.40000 139.000
31.44000 134.000
31.48000 117.000
31.52000 111.000
31.56000 139.000
31.60000 135.000
31.64000 110.000
31.68000 138.000
31.72000 128.000
31.76000 116.000
31.80000 131.000
31.84000 119.000
31.88000 137.000
31.92000 128.000
31.96000 111.000
32.00000 124.000
32.04000 151.000
32.08000 143.000
32.12000 121.000
32.16000 146.000
32.20000 151.000
32.24000 176.000
32.28000 167.000
32.32000 154.000
32.36000 192.000
32.40000 206.000
32.44000 286.000
32.48000 353.000
32.52000 388.000
32.56000 637.000
32.60000 851.000
32.64000 1082.000
32.68000 1438.000
32.72000 1748.000
32.76000 1774.000
32.80000 1606.000
32.84000 1272.000
32.88000 919.000
32.92000 628.000
32.96000 422.000
33.00000 300.000
33.04000 266.000
33.08000 189.000
33.12000 176.000
33.16000 157.000
33.20000 117.000
33.24000 131.000
33.28000 125.000
33.32000 114.000
33.36000 110.000
33.40000 110.000
33.44000 132.000
33.48000 101.000
33.52000 119.000
33.56000 120.000
33.60000 114.000
33.64000 103.000
33.68000 105.000
33.72000 107.000
33.76000 115.000
33.80000 108.000
33.84000 111.000
33.88000 110.000
33.92000 113.000
33.96000 99.000
34.00000 81.000
34.04000 101.000
34.08000 96.000
34.12000 87.000
34.16000 112.000
34.20000 101.000
34.24000 93.000
34.28000 91.000
34.32000 113.000
34.36000 102.000
34.40000 110.000
34.44000 93.000
34.48000 111.000
34.52000 109.000
34.56000 104.000
34.60000 103.000
34.64000 95.000
34.68000 90.000
34.72000 106.000
34.76000 97.000
34.80000 85.000
34.84000 105.000
34.88000 89.000
34.92000 92.000
34.96000 85.000
35.00000 85.000
35.04000 99.000
35.08000 97.000
35.12000 91.000
35.16000 109.000
35.20000 99.000
35.24000 104.000
35.28000 96.000
35.32000 85.000
35.36000 110.000
35.40000 89.000
35.44000 101.000
35.48000 89.000
35.52000 115.000
35.56000 109.000
35.60000 86.000
35.64000 133.000
35.68000 127.000
35.72000 143.000
35.76000 187.000
35.80000 237.000
35.84000 280.000
35.88000 383.000
35.92000 484.000
35.96000 602.000
36.00000 638.000
36.04000 556.000
36.08000 459.000
36.12000 381.000
36.16000 280.000
36.20000 194.000
36.24000 157.000
36.28000 127.000
36.32000 111.000
36.36000 106.000
36.40000 105.000
36.44000 103.000
36.48000 99.000
36.52000 85.000
36.56000 104.000
36.60000 90.000
36.64000 84.000
36.68000 81.000
36.72000 83.000
36.76000 107.000
36.80000 89.000
36.84000 94.000
36.88000 93.000
36.92000 100.000
36.96000 82.000
37.00000 71.000
37.04000 84.000
37.08000 77.000
37.12000 81.000
37.16000 78.000
37.20000 101.000
37.24000 89.000
37.28000 88.000
37.32000 69.000
37.36000 81.000
37.40000 100.000
37.44000 72.000
37.48000 102.000
37.52000 93.000
37.56000 92.000
37.60000 92.000
37.64000 81.000
37.68000 87.000
37.72000 87.000
37.76000 72.000
37.80000 87.000
37.84000 71.000
37.88000 81.000
37.92000 70.000
37.96000 92.000
38.00000 80.000
38.04000 74.000
38.08000 83.000
38.12000 80.000
38.16000 75.000
38.20000 63.000
38.24000 84.000
38.28000 83.000
38.32000 94.000
38.36000 90.000
38.40000 69.000
38.44000 88.000
38.48000 78.000
38.52000 76.000
38.56000 87.000
38.60000 80.000
38.64000 74.000
38.68000 91.000
38.72000 82.000
38.76000 79.000
38.80000 91.000
38.84000 87.000
38.88000 67.000
38.92000 74.000
38.96000 74.000
39.00000 85.000
39.04000 84.000
39.08000 95.000
39.12000 95.000
39.16000 77.000
39.20000 77.000
39.24000 79.000
39.28000 93.000
39.32000 84.000
39.36000 72.000
39.40000 81.000
39.44000 85.000
39.48000 85.000
39.52000 87.000
39.56000 94.000
39.60000 73.000
39.64000 63.000
39.68000 78.000
39.72000 95.000
39.76000 93.000
39.80000 93.000
39.84000 97.000
39.88000 101.000
39.92000 101.000
39.96000 118.000
40.00000 107.000
40.04000 100.000
40.08000 105.000
40.12000 96.000
40.16000 90.000
40.20000 98.000
40.24000 78.000
40.28000 98.000
40.32000 101.000
40.36000 89.000
40.40000 84.000
40.44000 100.000
40.48000 94.000
40.52000 91.000
40.56000 115.000
40.60000 94.000
40.64000 94.000
40.68000 93.000
40.72000 81.000
40.76000 109.000
40.80000 99.000
40.84000 118.000
40.88000 98.000
40.92000 100.000
40.96000 100.000
41.00000 105.000
41.04000 97.000
41.08000 110.000
41.12000 103.000
41.16000 94.000
41.20000 120.000
41.24000 127.000
41.28000 116.000
41.32000 116.000
41.36000 126.000
41.40000 128.000
41.44000 135.000
41.48000 185.000
41.52000 230.000
41.56000 342.000
41.60000 468.000
41.64000 601.000
41.68000 883.000
41.72000 1277.000
41.76000 1565.000
41.80000 1611.000
41.84000 1559.000
41.88000 1413.000
41.92000 1088.000
41.96000 924.000
42.00000 626.000
42.04000 442.000
42.08000 337.000
42.12000 242.000
42.16000 183.000
42.20000 123.000
42.24000 149.000
42.28000 111.000
42.32000 132.000
42.36000 122.000
42.40000 130.000
42.44000 124.000
42.48000 118.000
42.52000 106.000
42.56000 105.000
42.60000 129.000
42.64000 103.000
42.68000 115.000
42.72000 104.000
42.76000 96.000
42.80000 127.000
42.84000 111.000
42.88000 83.000
42.92000 97.000
42.96000 88.000
43.00000 87.000
43.04000 89.000
43.08000 101.000
43.12000 100.000
43.16000 88.000
43.20000 104.000
43.24000 98.000
43.28000 111.000
43.32000 121.000
43.36000 115.000
43.40000 107.000
43.44000 93.000
43.48000 96.000
43.52000 88.000
43.56000 104.000
43.60000 110.000
43.64000 107.000
43.68000 107.000
43.72000 94.000
43.76000 93.000
43.80000 109.000
43.84000 99.000
43.88000 106.000
43.92000 98.000
43.96000 108.000
44.00000 110.000
44.04000 85.000
44.08000 116.000
44.12000 103.000
44.16000 163.000
44.20000 179.000
44.24000 193.000
44.28000 264.000
44.32000 341.000
44.36000 422.000
44.40000 512.000
44.44000 641.000
44.48000 633.000
44.52000 637.000
44.56000 508.000
44.60000 465.000
44.64000 325.000
44.68000 273.000
44.72000 190.000
44.76000 146.000
44.80000 132.000
44.84000 120.000
44.88000 94.000
44.92000 100.000
44.96000 116.000
45.00000 114.000
45.04000 87.000
45.08000 83.000
45.12000 88.000
45.16000 80.000
45.20000 92.000
45.24000 88.000
45.28000 78.000
45.32000 89.000
45.36000 83.000
45.40000 85.000
45.44000 81.000
45.48000 84.000
45.52000 66.000
45.56000 95.000
45.60000 75.000
45.64000 68.000
45.68000 88.000
45.72000 73.000
45.76000 101.000
45.80000 77.000
45.84000 93.000
45.88000 91.000
45.92000 74.000
45.96000 62.000
46.00000 84.000
46.04000 86.000
46.08000 69.000
46.12000 85.000
46.16000 92.000
46.20000 90.000
46.24000 85.000
46.28000 81.000
46.32000 69.000
46.36000 75.000
46.40000 71.000
46.44000 86.000
46.48000 92.000
46.52000 70.000
46.56000 81.000
46.60000 68.000
46.64000 88.000
46.68000 82.000
46.72000 73.000
46.76000 71.000
46.80000 62.000
46.84000 85.000
46.88000 99.000
46.92000 101.000
46.96000 88.000
47.00000 86.000
47.04000 103.000
47.08000 70.000
47.12000 88.000
47.16000 62.000
47.20000 93.000
47.24000 66.000
47.28000 88.000
47.32000 92.000
47.36000 79.000
47.40000 69.000
47.44000 70.000
47.48000 77.000
47.52000 70.000
47.56000 64.000
47.60000 69.000
47.64000 70.000
47.68000 94.000
47.72000 89.000
47.76000 73.000
47.80000 88.000
47.84000 59.000
47.88000 70.000
47.92000 71.000
47.96000 73.000
48.00000 69.000
48.04000 69.000
48.08000 63.000
48.12000 86.000
48.16000 76.000
48.20000 70.000
48.24000 62.000
48.28000 67.000
48.32000 65.000
48.36000 73.000
48.40000 74.000
48.44000 69.000
48.48000 69.000
48.52000 66.000
48.56000 58.000
48.60000 61.000
48.64000 76.000
48.68000 60.000
48.72000 64.000
48.76000 64.000
48.80000 68.000
48.84000 69.000
48.88000 94.000
48.92000 72.000
48.96000 61.000
49.00000 85.000
49.04000 63.000
49.08000 75.000
49.12000 60.000
49.16000 64.000
49.20000 76.000
49.24000 63.000
49.28000 63.000
49.32000 85.000
49.36000 87.000
49.40000 75.000
49.44000 86.000
49.48000 74.000
49.52000 84.000
49.56000 79.000
49.60000 65.000
49.64000 76.000
49.68000 86.000
49.72000 65.000
49.76000 70.000
49.80000 65.000
49.84000 68.000
49.88000 67.000
49.92000 64.000
49.96000 59.000
50.00000 58.000
50.04000 70.000
50.08000 58.000
50.12000 62.000
50.16000 61.000
50.20000 68.000
50.24000 72.000
50.28000 58.000
50.32000 61.000
50.36000 67.000
50.40000 76.000
50.44000 70.000
50.48000 65.000
50.52000 67.000
50.56000 62.000
50.60000 62.000
50.64000 75.000
50.68000 73.000
50.72000 68.000
50.76000 67.000
50.80000 68.000
50.84000 67.000
50.88000 56.000
50.92000 48.000
50.96000 64.000
51.00000 77.000
51.04000 44.000
51.08000 74.000
51.12000 68.000
51.16000 69.000
51.20000 64.000
51.24000 53.000
51.28000 84.000
51.32000 48.000
51.36000 65.000
51.40000 61.000
51.44000 67.000
51.48000 76.000
51.52000 89.000
51.56000 69.000
51.60000 104.000
51.64000 117.000
51.68000 159.000
51.72000 220.000
51.76000 225.000
51.80000 286.000
51.84000 264.000
51.88000 268.000
51.92000 238.000
51.96000 211.000
52.00000 185.000
52.04000 171.000
52.08000 127.000
52.12000 115.000
52.16000 90.000
52.20000 77.000
52.24000 59.000
52.28000 61.000
52.32000 67.000
52.36000 71.000
52.40000 74.000
52.44000 64.000
52.48000 54.000
52.52000 55.000
52.56000 59.000
52.60000 58.000
52.64000 78.000
52.68000 69.000
52.72000 53.000
52.76000 62.000
52.80000 57.000
52.84000 59.000
52.88000 67.000
52.92000 63.000
52.96000 69.000
53.00000 59.000
53.04000 64.000
53.08000 52.000
53.12000 50.000
53.16000 56.000
53.20000 71.000
53.24000 68.000
53.28000 85.000
53.32000 58.000
53.36000 47.000
53.40000 60.000
53.44000 58.000
53.48000 49.000
53.52000 62.000
53.56000 64.000
53.60000 61.000
53.64000 57.000
53.68000 58.000
53.72000 65.000
53.76000 59.000
53.80000 77.000
53.84000 71.000
53.88000 91.000
53.92000 96.000
53.96000 122.000
54.00000 139.000
54.04000 188.000
54.08000 174.000
54.12000 182.000
54.16000 175.000
54.20000 145.000
54.24000 148.000
54.28000 117.000
54.32000 113.000
54.36000 74.000
54.40000 85.000
54.44000 66.000
54.48000 71.000
54.52000 53.000
54.56000 54.000
54.60000 60.000
54.64000 53.000
54.68000 62.000
54.72000 65.000
54.76000 53.000
54.80000 51.000
54.84000 60.000
54.88000 64.000
54.92000 57.000
54.96000 66.000
55.00000 57.000
55.04000 60.000
55.08000 45.000
55.12000 56.000
55.16000 66.000
55.20000 65.000
55.24000 49.000
55.28000 56.000
55.32000 62.000
55.36000 66.000
55.40000 49.000
55.44000 58.000
55.48000 58.000
55.52000 59.000
55.56000 47.000
55.60000 66.000
55.64000 63.000
55.68000 67.000
55.72000 44.000
55.76000 43.000
55.80000 53.000
55.84000 58.000
55.88000 55.000
55.92000 73.000
55.96000 52.000
56.00000 49.000
56.04000 62.000
56.08000 55.000
56.12000 76.000
56.16000 79.000
56.20000 86.000
56.24000 100.000
56.28000 100.000
56.32000 121.000
56.36000 90.000
56.40000 108.000
56.44000 92.000
56.48000 86.000
56.52000 89.000
56.56000 72.000
56.60000 67.000
56.64000 59.000
56.68000 64.000
56.72000 60.000
56.76000 50.000
56.80000 59.000
56.84000 60.000
56.88000 51.000
56.92000 66.000
56.96000 49.000
57.00000 44.000
57.04000 54.000
57.08000 56.000
57.12000 42.000
57.16000 68.000
57.20000 51.000
57.24000 59.000
57.28000 61.000
57.32000 49.000
57.36000 55.000
57.40000 52.000
57.44000 61.000
57.48000 47.000
57.52000 70.000
57.56000 63.000
57.60000 45.000
57.64000 32.000
57.68000 60.000
57.72000 51.000
57.76000 64.000
57.80000 55.000
57.84000 49.000
57.88000 54.000
57.92000 48.000
57.96000 49.000
58.00000 43.000
58.04000 51.000
58.08000 39.000
58.12000 40.000
58.16000 52.000
58.20000 51.000
58.24000 36.000
58.28000 52.000
58.32000 49.000
58.36000 64.000
58.40000 36.000
58.44000 55.000
58.48000 51.000
58.52000 65.000
58.56000 58.000
58.60000 55.000
58.64000 46.000
58.68000 63.000
58.72000 40.000
58.76000 41.000
58.80000 40.000
58.84000 53.000
58.88000 71.000
58.92000 54.000
58.96000 54.000
59.00000 58.000
59.04000 64.000
59.08000 55.000
59.12000 44.000
59.16000 55.000
59.20000 45.000
59.24000 43.000
59.28000 50.000
59.32000 53.000
59.36000 56.000
59.40000 62.000
59.44000 49.000
59.48000 54.000
59.52000 50.000
59.56000 52.000
59.60000 39.000
59.64000 60.000
59.68000 53.000
59.72000 49.000
59.76000 59.000
59.80000 60.000
59.84000 59.000
59.88000 61.000
59.92000 53.000