File: XRD/32.xy
5.00000 568.000
5.04000 604.000
5.08000 624.000
5.12000 528.000
5.16000 547.000
5.20000 549.000
5.24000 549.000
5.28000 503.000
5.32000 562.000
5.36000 528.000
5.40000 532.000
5.44000 529.000
5.48000 541.000
5.52000 521.000
5.56000 560.000
5.60000 486.000
5.64000 557.000
5.68000 468.000
5.72000 564.000
5.76000 469.000
5.80000 514.000
5.84000 490.000
5.88000 502.000
5.92000 507.000
5.96000 503.000
6.00000 485.000
6.04000 498.000
6.08000 463.000
6.12000 418.000
6.16000 507.000
6.20000 470.000
6.24000 426.000
6.28000 429.000
6.32000 455.000
6.36000 424.000
6.40000 408.000
6.44000 485.000
6.48000 439.000
6.52000 447.000
6.56000 430.000
6.60000 406.000
6.64000 437.000
6.68000 430.000
6.72000 438.000
6.76000 434.000
6.80000 451.000
6.84000 447.000
6.88000 411.000
6.92000 426.000
6.96000 406.000
7.00000 388.000
7.04000 403.000
7.08000 361.000
7.12000 388.000
7.16000 368.000
7.20000 407.000
7.24000 370.000
7.28000 388.000
7.32000 411.000
7.36000 383.000
7.40000 353.000
7.44000 378.000
7.48000 407.000
7.52000 390.000
7.56000 395.000
7.60000 391.000
7.64000 391.000
7.68000 369.000
7.72000 369.000
7.76000 366.000
7.80000 341.000
7.84000 374.000
7.88000 343.000
7.92000 349.000
7.96000 347.000
8.00000 334.000
8.04000 374.000
8.08000 330.000
8.12000 344.000
8.16000 329.000
8.20000 341.000
8.24000 351.000
8.28000 319.000
8.32000 344.000
8.36000 302.000
8.40000 322.000
8.44000 346.000
8.48000 367.000
8.52000 348.000
8.56000 310.000
8.60000 321.000
8.64000 362.000
8.68000 334.000
8.72000 299.000
8.76000 296.000
8.80000 314.000
8.84000 327.000
8.88000 336.000
8.92000 328.000
8.96000 345.000
9.00000 302.000
9.04000 307.000
9.08000 321.000
9.12000 278.000
9.16000 286.000
9.20000 345.000
9.24000 287.000
9.28000 275.000
9.32000 290.000
9.36000 281.000
9.40000 313.000
9.44000 282.000
9.48000 286.000
9.52000 286.000
9.56000 297.000
9.60000 270.000
9.64000 268.000
9.68000 297.000
9.72000 293.000
9.76000 302.000
9.80000 294.000
9.84000 255.000
9.88000 273.000
9.92000 290.000
9.96000 279.000
10.00000 268.000
10.04000 252.000
10.08000 254.000
10.12000 271.000
10.16000 285.000
10.20000 256.000
10.24000 270.000
10.28000 284.000
10.32000 301.000
10.36000 260.000
10.40000 256.000
10.44000 261.000
10.48000 265.000
10.52000 248.000
10.56000 287.000
10.60000 243.000
10.64000 240.000
10.68000 245.000
10.72000 216.000
10.76000 237.000
10.80000 259.000
10.84000 288.000
10.88000 236.000
10.92000 251.000
10.96000 241.000
11.00000 253.000
11.04000 245.000
11.08000 290.000
11.12000 246.000
11.16000 231.000
11.20000 233.000
11.24000 234.000
11.28000 225.000
11.32000 241.000
11.36000 238.000
11.40000 244.000
11.44000 244.000
11.48000 217.000
11.52000 276.000
11.56000 254.000
11.60000 247.000
11.64000 242.000
11.68000 228.000
11.72000 246.000
11.76000 256.000
11.80000 218.000
11.84000 252.000
11.88000 241.000
11.92000 233.000
11.96000 219.000
12.00000 231.000
12.04000 229.000
12.08000 252.000
12.12000 264.000
12.16000 226.000
12.20000 241.000
12.24000 245.000
12.28000 238.000
12.32000 254.000
12.36000 257.000
12.40000 246.000
12.44000 255.000
12.48000 278.000
12.52000 269.000
12.56000 224.000
12.60000 230.000
12.64000 228.000
12.68000 233.000
12.72000 241.000
12.76000 255.000
12.80000 254.000
12.84000 281.000
12.88000 255.000
12.92000 268.000
12.96000 282.000
13.00000 270.000
13.04000 253.000
13.08000 308.000
13.12000 246.000
13.16000 292.000
13.20000 289.000
13.24000 318.000
13.28000 319.000
13.32000 312.000
13.36000 321.000
13.40000 298.000
13.44000 297.000
13.48000 270.000
13.52000 317.000
13.56000 303.000
13.60000 311.000
13.64000 304.000
13.68000 361.000
13.72000 327.000
13.76000 338.000
13.80000 371.000
13.84000 387.000
13.88000 394.000
13.92000 510.000
13.96000 552.000
14.00000 642.000
14.04000 772.000
14.08000 873.000
14.12000 924.000
14.16000 970.000
14.20000 1006.000
14.24000 1093.000
14.28000 1197.000
14.32000 1418.000
14.36000 1781.000
14.40000 2129.000
14.44000 2729.000
14.48000 3430.000
14.52000 4591.000
14.56000 6006.000
14.60000 8478.000
14.64000 11908.000
14.68000 17135.000
14.72000 21347.000
14.76000 21273.000
14.80000 15220.000
14.84000 8254.000
14.88000 4627.000
14.92000 2572.000
14.96000 1656.000
15.00000 1090.000
15.04000 861.000
15.08000 677.000
15.12000 558.000
15.16000 488.000
15.20000 428.000
15.24000 378.000
15.28000 364.000
15.32000 358.000
15.36000 314.000
15.40000 324.000
15.44000 328.000
15.48000 311.000
15.52000 251.000
15.56000 254.000
15.60000 276.000
15.64000 290.000
15.68000 240.000
15.72000 222.000
15.76000 226.000
15.80000 203.000
15.84000 213.000
15.88000 230.000
15.92000 192.000
15.96000 224.000
16.00000 180.000
16.04000 209.000
16.08000 215.000
16.12000 185.000
16.16000 211.000
16.20000 204.000
16.24000 192.000
16.28000 182.000
16.32000 203.000
16.36000 186.000
16.40000 177.000
16.44000 191.000
16.48000 192.000
16.52000 208.000
16.56000 176.000
16.60000 168.000
16.64000 176.000
16.68000 173.000
16.72000 161.000
16.76000 201.000
16.80000 148.000
16.84000 182.000
16.88000 180.000
16.92000 161.000
16.96000 178.000
17.00000 159.000
17.04000 157.000
17.08000 152.000
17.12000 163.000
17.16000 171.000
17.20000 166.000
17.24000 151.000
17.28000 162.000
17.32000 168.000
17.36000 164.000
17.40000 170.000
17.44000 140.000
17.48000 169.000
17.52000 149.000
17.56000 152.000
17.60000 149.000
17.64000 171.000
17.68000 154.000
17.72000 153.000
17.76000 146.000
17.80000 147.000
17.84000 171.000
17.88000 162.000
17.92000 177.000
17.96000 148.000
18.00000 142.000
18.04000 145.000
18.08000 167.000
18.12000 135.000
18.16000 150.000
18.20000 151.000
18.24000 132.000
18.28000 138.000
18.32000 159.000
18.36000 163.000
18.40000 149.000
18.44000 148.000
18.48000 134.000
18.52000 149.000
18.56000 165.000
18.60000 157.000
18.64000 153.000
18.68000 173.000
18.72000 166.000
18.76000 160.000
18.80000 163.000
18.84000 152.000
18.88000 152.000
18.92000 170.000
18.96000 175.000
19.00000 156.000
19.04000 162.000
19.08000 137.000
19.12000 144.000
19.16000 151.000
19.20000 146.000
19.24000 158.000
19.28000 148.000
19.32000 153.000
19.36000 152.000
19.40000 143.000
19.44000 162.000
19.48000 165.000
19.52000 137.000
19.56000 176.000
19.60000 132.000
19.64000 155.000
19.68000 170.000
19.72000 153.000
19.76000 148.000
19.80000 146.000
19.84000 181.000
19.88000 152.000
19.92000 158.000
19.96000 173.000
20.00000 165.000
20.04000 182.000
20.08000 166.000
20.12000 180.000
20.16000 171.000
20.20000 177.000
20.24000 167.000
20.28000 173.000
20.32000 181.000
20.36000 166.000
20.40000 212.000
20.44000 219.000
20.48000 231.000
20.52000 265.000
20.56000 288.000
20.60000 311.000
20.64000 367.000
20.68000 421.000
20.72000 544.000
20.76000 682.000
20.80000 837.000
20.84000 1103.000
20.88000 1315.000
20.92000 1340.000
20.96000 1144.000
21.00000 849.000
21.04000 558.000
21.08000 400.000
21.12000 253.000
21.16000 253.000
21.20000 196.000
21.24000 166.000
21.28000 194.000
21.32000 162.000
21.36000 156.000
21.40000 171.000
21.44000 169.000
21.48000 144.000
21.52000 170.000
21.56000 186.000
21.60000 142.000
21.64000 180.000
21.68000 130.000
21.72000 153.000
21.76000 156.000
21.80000 166.000
21.84000 163.000
21.88000 158.000
21.92000 155.000
21.96000 161.000
22.00000 145.000
22.04000 150.000
22.08000 175.000
22.12000 151.000
22.16000 154.000
22.20000 174.000
22.24000 139.000
22.28000 151.000
22.32000 147.000
22.36000 164.000
22.40000 141.000
22.44000 150.000
22.48000 171.000
22.52000 162.000
22.56000 144.000
22.60000 155.000
22.64000 160.000
22.68000 159.000
22.72000 161.000
22.76000 173.000
22.80000 151.000
22.84000 152.000
22.88000 152.000
22.92000 147.000
22.96000 166.000
23.00000 172.000
23.04000 187.000
23.08000 158.000
23.12000 157.000
23.16000 143.000
23.20000 184.000
23.24000 157.000
23.28000 172.000
23.32000 138.000
23.36000 157.000
23.40000 172.000
23.44000 179.000
23.48000 142.000
23.52000 150.000
23.56000 152.000
23.60000 170.000
23.64000 173.000
23.68000 182.000
23.72000 144.000
23.76000 171.000
23.80000 161.000
23.84000 166.000
23.88000 182.000
23.92000 185.000
23.96000 156.000
24.00000 162.000
24.04000 151.000
24.08000 146.000
24.12000 165.000
24.16000 149.000
24.20000 174.000
24.24000 160.000
24.28000 163.000
24.32000 186.000
24.36000 166.000
24.40000 157.000
24.44000 145.000
24.48000 161.000
24.52000 155.000
24.56000 172.000
24.60000 172.000
24.64000 161.000
24.68000 167.000
24.72000 149.000
24.76000 184.000
24.80000 158.000
24.84000 149.000
24.88000 155.000
24.92000 151.000
24.96000 146.000
25.00000 155.000
25.04000 142.000
25.08000 157.000
25.12000 142.000
25.16000 141.000
25.20000 168.000
25.24000 159.000
25.28000 158.000
25.32000 159.000
25.36000 147.000
25.40000 163.000
25.44000 164.000
25.48000 159.000
25.52000 209.000
25.56000 246.000
25.60000 239.000
25.64000 293.000
25.68000 307.000
25.72000 320.000
25.76000 279.000
25.80000 232.000
25.84000 202.000
25.88000 153.000
25.92000 155.000
25.96000 167.000
26.00000 121.000
26.04000 113.000
26.08000 118.000
26.12000 131.000
26.16000 145.000
26.20000 111.000
26.24000 130.000
26.28000 120.000
26.32000 141.000
26.36000 126.000
26.40000 112.000
26.44000 132.000
26.48000 138.000
26.52000 102.000
26.56000 124.000
26.60000 111.000
26.64000 107.000
26.68000 109.000
26.72000 119.000
26.76000 158.000
26.80000 136.000
26.84000 121.000
26.88000 115.000
26.92000 121.000
26.96000 135.000
27.00000 112.000
27.04000 93.000
27.08000 113.000
27.12000 110.000
27.16000 101.000
27.20000 119.000
27.24000 114.000
27.28000 123.000
27.32000 124.000
27.36000 109.000
27.40000 111.000
27.44000 125.000
27.48000 109.000
27.52000 114.000
27.56000 120.000
27.60000 111.000
27.64000 129.000
27.68000 113.000
27.72000 121.000
27.76000 104.000
27.80000 113.000
27.84000 114.000
27.88000 118.000
27.92000 121.000
27.96000 104.000
28.00000 125.000
28.04000 117.000
28.08000 110.000
28.12000 98.000
28.16000 112.000
28.20000 119.000
28.24000 133.000
28.28000 142.000
28.32000 137.000
28.36000 164.000
28.40000 147.000
28.44000 153.000
28.48000 186.000
28.52000 159.000
28.56000 163.000
28.60000 148.000
28.64000 135.000
28.68000 138.000
28.72000 144.000
28.76000 156.000
28.80000 144.000
28.84000 144.000
28.88000 149.000
28.92000 131.000
28.96000 146.000
29.00000 144.000
29.04000 155.000
29.08000 169.000
29.12000 169.000
29.16000 145.000
29.20000 172.000
29.24000 187.000
29.28000 221.000
29.32000 238.000
29.36000 282.000
29.40000 304.000
29.44000 407.000
29.48000 510.000
29.52000 770.000
29.56000 1015.000
29.60000 1407.000
29.64000 1908.000
29.68000 2713.000
29.72000 3461.000
29.76000 3875.000
29.80000 3655.000
29.84000 2818.000
29.88000 1877.000
29.92000 1161.000
29.96000 723.000
30.00000 469.000
30.04000 324.000
30.08000 251.000
30.12000 199.000
30.16000 159.000
30.20000 168.000
30.24000 148.000
30.28000 145.000
30.32000 137.000
30.36000 139.000
30.40000 128.000
30.44000 136.000
30.48000 142.000
30.52000 121.000
30.56000 126.000
30.60000 129.000
30.64000 117.000
30.68000 114.000
30.72000 100.000
30.76000 128.000
30.80000 121.000
30.84000 108.000
30.88000 100.000
30.92000 116.000
30.96000 101.000
31.00000 97.000
31.04000 87.000
31.08000 124.000
31.12000 118.000
31.16000 131.000
31.20000 118.000
31.24000 123.000
31.28000 93.000
31.32000 109.000
31.36000 112.000
31.40000 118.000
31.44000 109.000
31.48000 78.000
31.52000 111.000
31.56000 118.000
31.60000 126.000
31.64000 122.000
31.68000 100.000
31.72000 100.000
31.76000 123.000
31.80000 130.000
31.84000 120.000
31.88000 120.000
31.92000 123.000
31.96000 114.000
32.00000 128.000
32.04000 131.000
32.08000 119.000
32.12000 114.000
32.16000 117.000
32.20000 107.000
32.24000 114.000
32.28000 120.000
32.32000 103.000
32.36000 121.000
32.40000 116.000
32.44000 109.000
32.48000 126.000
32.52000 100.000
32.56000 113.000
32.60000 109.000
32.64000 141.000
32.68000 128.000
32.72000 138.000
32.76000 152.000
32.80000 123.000
32.84000 149.000
32.88000 150.000
32.92000 145.000
32.96000 180.000
33.00000 191.000
33.04000 251.000
33.08000 311.000
33.12000 420.000
33.16000 534.000
33.20000 790.000
33.24000 1064.000
33.28000 1417.000
33.32000 1961.000
33.36000 2338.000
33.40000 2439.000
33.44000 2209.000
33.48000 1636.000
33.52000 1117.000
33.56000 700.000
33.60000 466.000
33.64000 314.000
33.68000 245.000
33.72000 168.000
33.76000 155.000
33.80000 145.000
33.84000 138.000
33.88000 149.000
33.92000 125.000
33.96000 126.000
34.00000 95.000
34.04000 104.000
34.08000 107.000
34.12000 93.000
34.16000 101.000
34.20000 101.000
34.24000 111.000
34.28000 96.000
34.32000 99.000
34.36000 89.000
34.40000 94.000
34.44000 73.000
34.48000 78.000
34.52000 86.000
34.56000 73.000
34.60000 66.000
34.64000 59.000
34.68000 77.000
34.72000 82.000
34.76000 67.000
34.80000 68.000
34.84000 84.000
34.88000 92.000
34.92000 74.000
34.96000 66.000
35.00000 93.000
35.04000 74.000
35.08000 73.000
35.12000 67.000
35.16000 55.000
35.20000 79.000
35.24000 72.000
35.28000 79.000
35.32000 80.000
35.36000 63.000
35.40000 70.000
35.44000 72.000
35.48000 69.000
35.52000 67.000
35.56000 63.000
35.60000 84.000
35.64000 65.000
35.68000 63.000
35.72000 71.000
35.76000 76.000
35.80000 64.000
35.84000 68.000
35.88000 76.000
35.92000 52.000
35.96000 67.000
36.00000 57.000
36.04000 68.000
36.08000 82.000
36.12000 67.000
36.16000 75.000
36.20000 79.000
36.24000 81.000
36.28000 92.000
36.32000 85.000
36.36000 98.000
36.40000 97.000
36.44000 131.000
36.48000 153.000
36.52000 208.000
36.56000 228.000
36.60000 335.000
36.64000 398.000
36.68000 460.000
36.72000 421.000
36.76000 382.000
36.80000 312.000
36.84000 198.000
36.88000 154.000
36.92000 126.000
36.96000 98.000
37.00000 91.000
37.04000 73.000
37.08000 90.000
37.12000 64.000
37.16000 69.000
37.20000 76.000
37.24000 54.000
37.28000 63.000
37.32000 57.000
37.36000 65.000
37.40000 66.000
37.44000 66.000
37.48000 64.000
37.52000 58.000
37.56000 54.000
37.60000 64.000
37.64000 52.000
37.68000 58.000
37.72000 55.000
37.76000 52.000
37.80000 65.000
37.84000 65.000
37.88000 52.000
37.92000 42.000
37.96000 56.000
38.00000 48.000
38.04000 54.000
38.08000 43.000
38.12000 67.000
38.16000 57.000
38.20000 48.000
38.24000 52.000
38.28000 71.000
38.32000 66.000
38.36000 68.000
38.40000 65.000
38.44000 65.000
38.48000 50.000
38.52000 49.000
38.56000 63.000
38.60000 70.000
38.64000 45.000
38.68000 50.000
38.72000 58.000
38.76000 54.000
38.80000 55.000
38.84000 64.000
38.88000 62.000
38.92000 57.000
38.96000 51.000
39.00000 47.000
39.04000 62.000
39.08000 67.000
39.12000 45.000
39.16000 74.000
39.20000 50.000
39.24000 48.000
39.28000 55.000
39.32000 58.000
39.36000 65.000
39.40000 61.000
39.44000 56.000
39.48000 43.000
39.52000 51.000
39.56000 53.000
39.60000 56.000
39.64000 50.000
39.68000 51.000
39.72000 69.000
39.76000 61.000
39.80000 44.000
39.84000 62.000
39.88000 52.000
39.92000 58.000
39.96000 61.000
40.00000 57.000
40.04000 44.000
40.08000 46.000
40.12000 49.000
40.16000 65.000
40.20000 40.000
40.24000 53.000
40.28000 69.000
40.32000 58.000
40.36000 41.000
40.40000 65.000
40.44000 46.000
40.48000 62.000
40.52000 53.000
40.56000 48.000
40.60000 56.000
40.64000 52.000
40.68000 74.000
40.72000 72.000
40.76000 57.000
40.80000 71.000
40.84000 57.000
40.88000 47.000
40.92000 60.000
40.96000 58.000
41.00000 55.000
41.04000 55.000
41.08000 56.000
41.12000 60.000
41.16000 58.000
41.20000 54.000
41.24000 51.000
41.28000 69.000
41.32000 43.000
41.36000 66.000
41.40000 70.000
41.44000 41.000
41.48000 57.000
41.52000 60.000
41.56000 58.000
41.60000 40.000
41.64000 63.000
41.68000 63.000
41.72000 65.000
41.76000 68.000
41.80000 50.000
41.84000 60.000
41.88000 49.000
41.92000 59.000
41.96000 63.000
42.00000 64.000
42.04000 78.000
42.08000 57.000
42.12000 76.000
42.16000 80.000
42.20000 69.000
42.24000 78.000
42.28000 91.000
42.32000 126.000
42.36000 156.000
42.40000 175.000
42.44000 222.000
42.48000 351.000
42.52000 408.000
42.56000 576.000
42.60000 595.000
42.64000 648.000
42.68000 563.000
42.72000 508.000
42.76000 342.000
42.80000 264.000
42.84000 181.000
42.88000 161.000
42.92000 107.000
42.96000 84.000
43.00000 81.000
43.04000 73.000
43.08000 78.000
43.12000 63.000
43.16000 65.000
43.20000 76.000
43.24000 54.000
43.28000 70.000
43.32000 61.000
43.36000 57.000
43.40000 78.000
43.44000 74.000
43.48000 48.000
43.52000 64.000
43.56000 75.000
43.60000 62.000
43.64000 68.000
43.68000 65.000
43.72000 57.000
43.76000 59.000
43.80000 63.000
43.84000 50.000
43.88000 56.000
43.92000 63.000
43.96000 61.000
44.00000 67.000
44.04000 69.000
44.08000 66.000
44.12000 59.000
44.16000 68.000
44.20000 70.000
44.24000 44.000
44.28000 70.000
44.32000 63.000
44.36000 53.000
44.40000 76.000
44.44000 66.000
44.48000 63.000
44.52000 68.000
44.56000 74.000
44.60000 63.000
44.64000 62.000
44.68000 70.000
44.72000 62.000
44.76000 77.000
44.80000 69.000
44.84000 70.000
44.88000 79.000
44.92000 88.000
44.96000 89.000
45.00000 84.000
45.04000 100.000
45.08000 122.000
45.12000 132.000
45.16000 216.000
45.20000 275.000
45.24000 349.000
45.28000 440.000
45.32000 544.000
45.36000 544.000
45.40000 550.000
45.44000 448.000
45.48000 380.000
45.52000 278.000
45.56000 247.000
45.60000 156.000
45.64000 137.000
45.68000 109.000
45.72000 87.000
45.76000 78.000
45.80000 79.000
45.84000 78.000
45.88000 44.000
45.92000 64.000
45.96000 68.000
46.00000 67.000
46.04000 65.000
46.08000 58.000
46.12000 58.000
46.16000 55.000
46.20000 57.000
46.24000 44.000
46.28000 56.000
46.32000 61.000
46.36000 50.000
46.40000 62.000
46.44000 64.000
46.48000 76.000
46.52000 62.000
46.56000 54.000
46.60000 46.000
46.64000 60.000
46.68000 48.000
46.72000 58.000
46.76000 55.000
46.80000 65.000
46.84000 44.000
46.88000 62.000
46.92000 56.000
46.96000 71.000
47.00000 55.000
47.04000 58.000
47.08000 47.000
47.12000 54.000
47.16000 47.000
47.20000 55.000
47.24000 60.000
47.28000 50.000
47.32000 61.000
47.36000 50.000
47.40000 44.000
47.44000 55.000
47.48000 46.000
47.52000 55.000
47.56000 56.000
47.60000 61.000
47.64000 62.000
47.68000 45.000
47.72000 66.000
47.76000 78.000
47.80000 97.000
47.84000 119.000
47.88000 148.000
47.92000 131.000
47.96000 186.000
48.00000 149.000
48.04000 125.000
48.08000 110.000
48.12000 97.000
48.16000 95.000
48.20000 64.000
48.24000 62.000
48.28000 61.000
48.32000 54.000
48.36000 60.000
48.40000 60.000
48.44000 46.000
48.48000 48.000
48.52000 48.000
48.56000 55.000
48.60000 38.000
48.64000 47.000
48.68000 49.000
48.72000 49.000
48.76000 52.000
48.80000 50.000
48.84000 50.000
48.88000 38.000
48.92000 64.000
48.96000 49.000
49.00000 46.000
49.04000 47.000
49.08000 54.000
49.12000 48.000
49.16000 48.000
49.20000 49.000
49.24000 41.000
49.28000 40.000
49.32000 47.000
49.36000 41.000
49.40000 43.000
49.44000 42.000
49.48000 46.000
49.52000 46.000
49.56000 51.000
49.60000 48.000
49.64000 45.000
49.68000 45.000
49.72000 57.000
49.76000 51.000
49.80000 32.000
49.84000 44.000
49.88000 47.000
49.92000 51.000
49.96000 41.000
50.00000 47.000
50.04000 49.000
50.08000 41.000
50.12000 36.000
50.16000 40.000
50.20000 34.000
50.24000 51.000
50.28000 48.000
50.32000 58.000
50.36000 49.000
50.40000 44.000
50.44000 48.000
50.48000 53.000
50.52000 50.000
50.56000 49.000
50.60000 66.000
50.64000 47.000
50.68000 55.000
50.72000 51.000
50.76000 37.000
50.80000 38.000
50.84000 52.000
50.88000 29.000
50.92000 43.000
50.96000 45.000
51.00000 42.000
51.04000 43.000
51.08000 36.000
51.12000 45.000
51.16000 52.000
51.20000 44.000
51.24000 35.000
51.28000 54.000
51.32000 40.000
51.36000 42.000
51.40000 42.000
51.44000 30.000
51.48000 44.000
51.52000 47.000
51.56000 38.000
51.60000 41.000
51.64000 48.000
51.68000 47.000
51.72000 49.000
51.76000 33.000
51.80000 47.000
51.84000 27.000
51.88000 37.000
51.92000 70.000
51.96000 41.000
52.00000 46.000
52.04000 40.000
52.08000 46.000
52.12000 45.000
52.16000 37.000
52.20000 35.000
52.24000 55.000
52.28000 38.000
52.32000 43.000
52.36000 57.000
52.40000 50.000
52.44000 54.000
52.48000 46.000
52.52000 56.000
52.56000 54.000
52.60000 60.000
52.64000 50.000
52.68000 70.000
52.72000 70.000
52.76000 112.000
52.80000 118.000
52.84000 144.000
52.88000 166.000
52.92000 150.000
52.96000 139.000
53.00000 118.000
53.04000 117.000
53.08000 76.000
53.12000 73.000
53.16000 65.000
53.20000 59.000
53.24000 62.000
53.28000 35.000
53.32000 60.000
53.36000 51.000
53.40000 50.000
53.44000 44.000
53.48000 61.000
53.52000 39.000
53.56000 50.000
53.60000 57.000
53.64000 54.000
53.68000 40.000
53.72000 50.000
53.76000 35.000
53.80000 49.000
53.84000 30.000
53.88000 43.000
53.92000 46.000
53.96000 50.000
54.00000 30.000
54.04000 32.000
54.08000 37.000
54.12000 36.000
54.16000 37.000
54.20000 57.000
54.24000 46.000
54.28000 44.000
54.32000 45.000
54.36000 52.000
54.40000 39.000
54.44000 51.000
54.48000 47.000
54.52000 49.000
54.56000 42.000
54.60000 44.000
54.64000 45.000
54.68000 38.000
54.72000 43.000
54.76000 38.000
54.80000 55.000
54.84000 45.000
54.88000 50.000
54.92000 61.000
54.96000 57.000
55.00000 65.000
55.04000 84.000
55.08000 104.000
55.12000 158.000
55.16000 174.000
55.20000 166.000
55.24000 168.000
55.28000 167.000
55.32000 146.000
55.36000 163.000
55.40000 113.000
55.44000 103.000
55.48000 80.000
55.52000 61.000
55.56000 58.000
55.60000 51.000
55.64000 60.000
55.68000 50.000
55.72000 49.000
55.76000 51.000
55.80000 57.000
55.84000 50.000
55.88000 37.000
55.92000 48.000
55.96000 48.000
56.00000 37.000
56.04000 57.000
56.08000 46.000
56.12000 35.000
56.16000 35.000
56.20000 26.000
56.24000 45.000
56.28000 43.000
56.32000 45.000
56.36000 36.000
56.40000 38.000
56.44000 28.000
56.48000 48.000
56.52000 50.000
56.56000 46.000
56.60000 43.000
56.64000 53.000
56.68000 43.000
56.72000 45.000
56.76000 29.000
56.80000 35.000
56.84000 45.000
56.88000 48.000
56.92000 41.000
56.96000 33.000
57.00000 35.000
57.04000 27.000
57.08000 39.000
57.12000 47.000
57.16000 55.000
57.20000 47.000
57.24000 60.000
57.28000 71.000
57.32000 73.000
57.36000 89.000
57.40000 81.000
57.44000 111.000
57.48000 130.000
57.52000 104.000
57.56000 103.000
57.60000 106.000
57.64000 99.000
57.68000 88.000
57.72000 74.000
57.76000 56.000
57.80000 46.000
57.84000 47.000
57.88000 48.000
57.92000 55.000
57.96000 36.000
58.00000 36.000
58.04000 37.000
58.08000 37.000
58.12000 47.000
58.16000 41.000
58.20000 39.000
58.24000 42.000
58.28000 44.000
58.32000 47.000
58.36000 33.000
58.40000 27.000
58.44000 38.000
58.48000 44.000
58.52000 41.000
58.56000 35.000
58.60000 44.000
58.64000 37.000
58.68000 32.000
58.72000 37.000
58.76000 39.000
58.80000 38.000
58.84000 44.000
58.88000 41.000
58.92000 41.000
58.96000 33.000
59.00000 42.000
59.04000 34.000
59.08000 42.000
59.12000 29.000
59.16000 42.000
59.20000 30.000
59.24000 35.000
59.28000 45.000
59.32000 33.000
59.36000 34.000
59.40000 36.000
59.44000 39.000
59.48000 25.000
59.52000 34.000
59.56000 33.000
59.60000 32.000
59.64000 45.000
59.68000 40.000
59.72000 53.000
59.76000 31.000
59.80000 40.000
59.84000 42.000
59.88000 34.000
59.92000 34.000