File: XRD/33.xy
5.00000 618.000
5.04000 633.000
5.08000 598.000
5.12000 585.000
5.16000 588.000
5.20000 601.000
5.24000 598.000
5.28000 549.000
5.32000 546.000
5.36000 566.000
5.40000 565.000
5.44000 538.000
5.48000 552.000
5.52000 515.000
5.56000 517.000
5.60000 555.000
5.64000 564.000
5.68000 500.000
5.72000 495.000
5.76000 482.000
5.80000 504.000
5.84000 534.000
5.88000 463.000
5.92000 491.000
5.96000 498.000
6.00000 533.000
6.04000 495.000
6.08000 482.000
6.12000 496.000
6.16000 481.000
6.20000 468.000
6.24000 501.000
6.28000 491.000
6.32000 458.000
6.36000 446.000
6.40000 452.000
6.44000 429.000
6.48000 425.000
6.52000 451.000
6.56000 446.000
6.60000 452.000
6.64000 408.000
6.68000 468.000
6.72000 436.000
6.76000 431.000
6.80000 415.000
6.84000 380.000
6.88000 441.000
6.92000 432.000
6.96000 421.000
7.00000 421.000
7.04000 404.000
7.08000 417.000
7.12000 424.000
7.16000 411.000
7.20000 406.000
7.24000 412.000
7.28000 420.000
7.32000 376.000
7.36000 400.000
7.40000 405.000
7.44000 392.000
7.48000 410.000
7.52000 377.000
7.56000 358.000
7.60000 368.000
7.64000 387.000
7.68000 365.000
7.72000 386.000
7.76000 388.000
7.80000 368.000
7.84000 357.000
7.88000 362.000
7.92000 351.000
7.96000 379.000
8.00000 392.000
8.04000 343.000
8.08000 375.000
8.12000 349.000
8.16000 349.000
8.20000 338.000
8.24000 335.000
8.28000 345.000
8.32000 347.000
8.36000 336.000
8.40000 336.000
8.44000 359.000
8.48000 361.000
8.52000 357.000
8.56000 342.000
8.60000 349.000
8.64000 325.000
8.68000 328.000
8.72000 331.000
8.76000 293.000
8.80000 327.000
8.84000 321.000
8.88000 313.000
8.92000 306.000
8.96000 309.000
9.00000 309.000
9.04000 316.000
9.08000 313.000
9.12000 347.000
9.16000 318.000
9.20000 306.000
9.24000 300.000
9.28000 296.000
9.32000 317.000
9.36000 308.000
9.40000 292.000
9.44000 300.000
9.48000 313.000
9.52000 272.000
9.56000 300.000
9.60000 286.000
9.64000 269.000
9.68000 309.000
9.72000 300.000
9.76000 270.000
9.80000 282.000
9.84000 291.000
9.88000 278.000
9.92000 290.000
9.96000 270.000
10.00000 294.000
10.04000 281.000
10.08000 269.000
10.12000 260.000
10.16000 262.000
10.20000 262.000
10.24000 285.000
10.28000 251.000
10.32000 275.000
10.36000 285.000
10.40000 271.000
10.44000 256.000
10.48000 243.000
10.52000 272.000
10.56000 253.000
10.60000 263.000
10.64000 247.000
10.68000 245.000
10.72000 268.000
10.76000 258.000
10.80000 255.000
10.84000 266.000
10.88000 253.000
10.92000 238.000
10.96000 265.000
11.00000 276.000
11.04000 234.000
11.08000 247.000
11.12000 265.000
11.16000 261.000
11.20000 238.000
11.24000 255.000
11.28000 268.000
11.32000 270.000
11.36000 262.000
11.40000 267.000
11.44000 229.000
11.48000 267.000
11.52000 244.000
11.56000 252.000
11.60000 234.000
11.64000 232.000
11.68000 252.000
11.72000 227.000
11.76000 244.000
11.80000 262.000
11.84000 243.000
11.88000 254.000
11.92000 236.000
11.96000 252.000
12.00000 235.000
12.04000 276.000
12.08000 266.000
12.12000 266.000
12.16000 270.000
12.20000 275.000
12.24000 285.000
12.28000 306.000
12.32000 251.000
12.36000 243.000
12.40000 282.000
12.44000 261.000
12.48000 284.000
12.52000 279.000
12.56000 275.000
12.60000 269.000
12.64000 275.000
12.68000 312.000
12.72000 286.000
12.76000 292.000
12.80000 279.000
12.84000 305.000
12.88000 295.000
12.92000 307.000
12.96000 293.000
13.00000 258.000
13.04000 279.000
13.08000 328.000
13.12000 309.000
13.16000 345.000
13.20000 380.000
13.24000 398.000
13.28000 395.000
13.32000 411.000
13.36000 397.000
13.40000 369.000
13.44000 342.000
13.48000 354.000
13.52000 373.000
13.56000 361.000
13.60000 325.000
13.64000 358.000
13.68000 359.000
13.72000 407.000
13.76000 407.000
13.80000 441.000
13.84000 481.000
13.88000 500.000
13.92000 604.000
13.96000 624.000
14.00000 763.000
14.04000 970.000
14.08000 955.000
14.12000 1147.000
14.16000 1169.000
14.20000 1157.000
14.24000 1218.000
14.28000 1395.000
14.32000 1607.000
14.36000 2074.000
14.40000 2459.000
14.44000 3268.000
14.48000 4450.000
14.52000 5952.000
14.56000 8344.000
14.60000 11817.000
14.64000 17363.000
14.68000 24951.000
14.72000 31760.000
14.76000 31017.000
14.80000 21714.000
14.84000 12473.000
14.88000 6861.000
14.92000 3967.000
14.96000 2466.000
15.00000 1682.000
15.04000 1241.000
15.08000 984.000
15.12000 847.000
15.16000 723.000
15.20000 674.000
15.24000 549.000
15.28000 556.000
15.32000 461.000
15.36000 433.000
15.40000 406.000
15.44000 363.000
15.48000 376.000
15.52000 338.000
15.56000 333.000
15.60000 368.000
15.64000 315.000
15.68000 307.000
15.72000 253.000
15.76000 307.000
15.80000 235.000
15.84000 263.000
15.88000 240.000
15.92000 274.000
15.96000 206.000
16.00000 218.000
16.04000 225.000
16.08000 217.000
16.12000 238.000
16.16000 231.000
16.20000 212.000
16.24000 243.000
16.28000 211.000
16.32000 222.000
16.36000 209.000
16.40000 201.000
16.44000 225.000
16.48000 185.000
16.52000 186.000
16.56000 186.000
16.60000 200.000
16.64000 195.000
16.68000 187.000
16.72000 202.000
16.76000 174.000
16.80000 172.000
16.84000 175.000
16.88000 172.000
16.92000 208.000
16.96000 166.000
17.00000 170.000
17.04000 193.000
17.08000 196.000
17.12000 163.000
17.16000 171.000
17.20000 165.000
17.24000 166.000
17.28000 169.000
17.32000 169.000
17.36000 182.000
17.40000 170.000
17.44000 149.000
17.48000 193.000
17.52000 188.000
17.56000 168.000
17.60000 166.000
17.64000 166.000
17.68000 143.000
17.72000 156.000
17.76000 179.000
17.80000 173.000
17.84000 182.000
17.88000 151.000
17.92000 148.000
17.96000 157.000
18.00000 152.000
18.04000 169.000
18.08000 160.000
18.12000 176.000
18.16000 166.000
18.20000 145.000
18.24000 141.000
18.28000 159.000
18.32000 166.000
18.36000 142.000
18.40000 165.000
18.44000 151.000
18.48000 158.000
18.52000 158.000
18.56000 149.000
18.60000 158.000
18.64000 150.000
18.68000 157.000
18.72000 137.000
18.76000 162.000
18.80000 139.000
18.84000 159.000
18.88000 147.000
18.92000 145.000
18.96000 160.000
19.00000 152.000
19.04000 130.000
19.08000 152.000
19.12000 164.000
19.16000 169.000
19.20000 148.000
19.24000 142.000
19.28000 151.000
19.32000 136.000
19.36000 152.000
19.40000 130.000
19.44000 140.000
19.48000 141.000
19.52000 153.000
19.56000 141.000
19.60000 165.000
19.64000 140.000
19.68000 173.000
19.72000 140.000
19.76000 158.000
19.80000 167.000
19.84000 148.000
19.88000 137.000
19.92000 168.000
19.96000 149.000
20.00000 158.000
20.04000 181.000
20.08000 156.000
20.12000 162.000
20.16000 174.000
20.20000 143.000
20.24000 132.000
20.28000 180.000
20.32000 159.000
20.36000 184.000
20.40000 184.000
20.44000 187.000
20.48000 203.000
20.52000 212.000
20.56000 221.000
20.60000 286.000
20.64000 334.000
20.68000 414.000
20.72000 452.000
20.76000 615.000
20.80000 814.000
20.84000 1039.000
20.88000 1221.000
20.92000 1242.000
20.96000 1071.000
21.00000 755.000
21.04000 521.000
21.08000 388.000
21.12000 282.000
21.16000 203.000
21.20000 212.000
21.24000 176.000
21.28000 136.000
21.32000 136.000
21.36000 153.000
21.40000 157.000
21.44000 145.000
21.48000 148.000
21.52000 115.000
21.56000 143.000
21.60000 133.000
21.64000 136.000
21.68000 112.000
21.72000 110.000
21.76000 133.000
21.80000 125.000
21.84000 128.000
21.88000 125.000
21.92000 147.000
21.96000 111.000
22.00000 143.000
22.04000 122.000
22.08000 130.000
22.12000 126.000
22.16000 145.000
22.20000 129.000
22.24000 116.000
22.28000 124.000
22.32000 131.000
22.36000 117.000
22.40000 140.000
22.44000 125.000
22.48000 138.000
22.52000 105.000
22.56000 145.000
22.60000 109.000
22.64000 135.000
22.68000 129.000
22.72000 131.000
22.76000 109.000
22.80000 125.000
22.84000 138.000
22.88000 128.000
22.92000 133.000
22.96000 122.000
23.00000 115.000
23.04000 141.000
23.08000 136.000
23.12000 116.000
23.16000 119.000
23.20000 136.000
23.24000 131.000
23.28000 131.000
23.32000 144.000
23.36000 105.000
23.40000 126.000
23.44000 129.000
23.48000 143.000
23.52000 132.000
23.56000 144.000
23.60000 115.000
23.64000 129.000
23.68000 128.000
23.72000 145.000
23.76000 118.000
23.80000 119.000
23.84000 140.000
23.88000 140.000
23.92000 156.000
23.96000 133.000
24.00000 137.000
24.04000 111.000
24.08000 140.000
24.12000 135.000
24.16000 124.000
24.20000 131.000
24.24000 142.000
24.28000 121.000
24.32000 162.000
24.36000 144.000
24.40000 127.000
24.44000 141.000
24.48000 124.000
24.52000 152.000
24.56000 135.000
24.60000 126.000
24.64000 122.000
24.68000 133.000
24.72000 130.000
24.76000 105.000
24.80000 119.000
24.84000 116.000
24.88000 138.000
24.92000 142.000
24.96000 139.000
25.00000 113.000
25.04000 131.000
25.08000 127.000
25.12000 115.000
25.16000 147.000
25.20000 113.000
25.24000 139.000
25.28000 140.000
25.32000 139.000
25.36000 140.000
25.40000 141.000
25.44000 149.000
25.48000 134.000
25.52000 149.000
25.56000 157.000
25.60000 198.000
25.64000 185.000
25.68000 196.000
25.72000 200.000
25.76000 177.000
25.80000 170.000
25.84000 146.000
25.88000 134.000
25.92000 139.000
25.96000 129.000
26.00000 119.000
26.04000 105.000
26.08000 118.000
26.12000 126.000
26.16000 106.000
26.20000 123.000
26.24000 149.000
26.28000 113.000
26.32000 114.000
26.36000 139.000
26.40000 110.000
26.44000 154.000
26.48000 129.000
26.52000 115.000
26.56000 122.000
26.60000 93.000
26.64000 105.000
26.68000 135.000
26.72000 129.000
26.76000 121.000
26.80000 120.000
26.84000 123.000
26.88000 128.000
26.92000 143.000
26.96000 127.000
27.00000 118.000
27.04000 101.000
27.08000 111.000
27.12000 126.000
27.16000 113.000
27.20000 128.000
27.24000 114.000
27.28000 118.000
27.32000 135.000
27.36000 132.000
27.40000 122.000
27.44000 119.000
27.48000 110.000
27.52000 131.000
27.56000 117.000
27.60000 114.000
27.64000 112.000
27.68000 113.000
27.72000 109.000
27.76000 114.000
27.80000 121.000
27.84000 119.000
27.88000 108.000
27.92000 115.000
27.96000 116.000
28.00000 136.000
28.04000 127.000
28.08000 122.000
28.12000 130.000
28.16000 127.000
28.20000 127.000
28.24000 134.000
28.28000 130.000
28.32000 155.000
28.36000 138.000
28.40000 154.000
28.44000 164.000
28.48000 172.000
28.52000 171.000
28.56000 140.000
28.60000 158.000
28.64000 151.000
28.68000 138.000
28.72000 143.000
28.76000 146.000
28.80000 136.000
28.84000 132.000
28.88000 151.000
28.92000 154.000
28.96000 160.000
29.00000 127.000
29.04000 155.000
29.08000 145.000
29.12000 156.000
29.16000 165.000
29.20000 161.000
29.24000 177.000
29.28000 199.000
29.32000 223.000
29.36000 285.000
29.40000 309.000
29.44000 364.000
29.48000 444.000
29.52000 621.000
29.56000 895.000
29.60000 1266.000
29.64000 1713.000
29.68000 2322.000
29.72000 2937.000
29.76000 3142.000
29.80000 2785.000
29.84000 2230.000
29.88000 1466.000
29.92000 912.000
29.96000 570.000
30.00000 368.000
30.04000 295.000
30.08000 229.000
30.12000 172.000
30.16000 170.000
30.20000 145.000
30.24000 146.000
30.28000 141.000
30.32000 124.000
30.36000 147.000
30.40000 129.000
30.44000 134.000
30.48000 143.000
30.52000 131.000
30.56000 131.000
30.60000 118.000
30.64000 121.000
30.68000 134.000
30.72000 110.000
30.76000 103.000
30.80000 115.000
30.84000 117.000
30.88000 136.000
30.92000 141.000
30.96000 90.000
31.00000 113.000
31.04000 111.000
31.08000 117.000
31.12000 110.000
31.16000 118.000
31.20000 117.000
31.24000 112.000
31.28000 116.000
31.32000 98.000
31.36000 93.000
31.40000 110.000
31.44000 110.000
31.48000 112.000
31.52000 110.000
31.56000 127.000
31.60000 96.000
31.64000 119.000
31.68000 124.000
31.72000 116.000
31.76000 97.000
31.80000 120.000
31.84000 121.000
31.88000 136.000
31.92000 119.000
31.96000 129.000
32.00000 122.000
32.04000 107.000
32.08000 116.000
32.12000 121.000
32.16000 139.000
32.20000 128.000
32.24000 123.000
32.28000 123.000
32.32000 120.000
32.36000 124.000
32.40000 129.000
32.44000 104.000
32.48000 106.000
32.52000 116.000
32.56000 124.000
32.60000 109.000
32.64000 104.000
32.68000 129.000
32.72000 136.000
32.76000 126.000
32.80000 111.000
32.84000 117.000
32.88000 147.000
32.92000 124.000
32.96000 138.000
33.00000 195.000
33.04000 201.000
33.08000 282.000
33.12000 346.000
33.16000 490.000
33.20000 686.000
33.24000 954.000
33.28000 1277.000
33.32000 1622.000
33.36000 1830.000
33.40000 1912.000
33.44000 1641.000
33.48000 1269.000
33.52000 893.000
33.56000 574.000
33.60000 409.000
33.64000 298.000
33.68000 234.000
33.72000 169.000
33.76000 148.000
33.80000 152.000
33.84000 138.000
33.88000 112.000
33.92000 144.000
33.96000 94.000
34.00000 87.000
34.04000 103.000
34.08000 108.000
34.12000 71.000
34.16000 93.000
34.20000 101.000
34.24000 89.000
34.28000 89.000
34.32000 74.000
34.36000 89.000
34.40000 76.000
34.44000 79.000
34.48000 69.000
34.52000 70.000
34.56000 92.000
34.60000 66.000
34.64000 74.000
34.68000 74.000
34.72000 75.000
34.76000 79.000
34.80000 73.000
34.84000 68.000
34.88000 89.000
34.92000 66.000
34.96000 85.000
35.00000 79.000
35.04000 87.000
35.08000 63.000
35.12000 89.000
35.16000 71.000
35.20000 84.000
35.24000 90.000
35.28000 62.000
35.32000 69.000
35.36000 73.000
35.40000 78.000
35.44000 52.000
35.48000 69.000
35.52000 67.000
35.56000 75.000
35.60000 79.000
35.64000 71.000
35.68000 66.000
35.72000 70.000
35.76000 67.000
35.80000 50.000
35.84000 60.000
35.88000 62.000
35.92000 72.000
35.96000 62.000
36.00000 69.000
36.04000 60.000
36.08000 71.000
36.12000 56.000
36.16000 64.000
36.20000 73.000
36.24000 73.000
36.28000 83.000
36.32000 70.000
36.36000 82.000
36.40000 91.000
36.44000 84.000
36.48000 131.000
36.52000 122.000
36.56000 176.000
36.60000 226.000
36.64000 262.000
36.68000 292.000
36.72000 246.000
36.76000 243.000
36.80000 190.000
36.84000 154.000
36.88000 122.000
36.92000 85.000
36.96000 79.000
37.00000 73.000
37.04000 73.000
37.08000 67.000
37.12000 68.000
37.16000 62.000
37.20000 65.000
37.24000 53.000
37.28000 50.000
37.32000 63.000
37.36000 54.000
37.40000 48.000
37.44000 45.000
37.48000 55.000
37.52000 43.000
37.56000 65.000
37.60000 71.000
37.64000 53.000
37.68000 54.000
37.72000 46.000
37.76000 56.000
37.80000 48.000
37.84000 52.000
37.88000 52.000
37.92000 56.000
37.96000 40.000
38.00000 48.000
38.04000 51.000
38.08000 46.000
38.12000 49.000
38.16000 50.000
38.20000 54.000
38.24000 57.000
38.28000 62.000
38.32000 58.000
38.36000 54.000
38.40000 65.000
38.44000 52.000
38.48000 64.000
38.52000 42.000
38.56000 42.000
38.60000 46.000
38.64000 72.000
38.68000 50.000
38.72000 56.000
38.76000 63.000
38.80000 36.000
38.84000 61.000
38.88000 52.000
38.92000 52.000
38.96000 53.000
39.00000 50.000
39.04000 53.000
39.08000 50.000
39.12000 57.000
39.16000 47.000
39.20000 48.000
39.24000 61.000
39.28000 50.000
39.32000 45.000
39.36000 67.000
39.40000 54.000
39.44000 54.000
39.48000 51.000
39.52000 55.000
39.56000 51.000
39.60000 43.000
39.64000 52.000
39.68000 53.000
39.72000 65.000
39.76000 53.000
39.80000 52.000
39.84000 58.000
39.88000 40.000
39.92000 55.000
39.96000 50.000
40.00000 48.000
40.04000 56.000
40.08000 42.000
40.12000 49.000
40.16000 51.000
40.20000 35.000
40.24000 46.000
40.28000 55.000
40.32000 52.000
40.36000 59.000
40.40000 58.000
40.44000 43.000
40.48000 50.000
40.52000 57.000
40.56000 58.000
40.60000 57.000
40.64000 49.000
40.68000 63.000
40.72000 54.000
40.76000 53.000
40.80000 65.000
40.84000 58.000
40.88000 59.000
40.92000 61.000
40.96000 52.000
41.00000 44.000
41.04000 45.000
41.08000 54.000
41.12000 37.000
41.16000 49.000
41.20000 36.000
41.24000 68.000
41.28000 58.000
41.32000 52.000
41.36000 63.000
41.40000 54.000
41.44000 56.000
41.48000 45.000
41.52000 56.000
41.56000 52.000
41.60000 56.000
41.64000 60.000
41.68000 58.000
41.72000 59.000
41.76000 43.000
41.80000 61.000
41.84000 59.000
41.88000 48.000
41.92000 61.000
41.96000 63.000
42.00000 65.000
42.04000 65.000
42.08000 47.000
42.12000 54.000
42.16000 60.000
42.20000 60.000
42.24000 67.000
42.28000 75.000
42.32000 95.000
42.36000 121.000
42.40000 129.000
42.44000 192.000
42.48000 228.000
42.52000 306.000
42.56000 360.000
42.60000 401.000
42.64000 415.000
42.68000 341.000
42.72000 335.000
42.76000 252.000
42.80000 176.000
42.84000 146.000
42.88000 114.000
42.92000 84.000
42.96000 60.000
43.00000 68.000
43.04000 64.000
43.08000 72.000
43.12000 61.000
43.16000 68.000
43.20000 67.000
43.24000 56.000
43.28000 49.000
43.32000 74.000
43.36000 73.000
43.40000 52.000
43.44000 61.000
43.48000 57.000
43.52000 66.000
43.56000 53.000
43.60000 64.000
43.64000 54.000
43.68000 71.000
43.72000 59.000
43.76000 59.000
43.80000 62.000
43.84000 55.000
43.88000 59.000
43.92000 58.000
43.96000 52.000
44.00000 50.000
44.04000 55.000
44.08000 60.000
44.12000 46.000
44.16000 41.000
44.20000 69.000
44.24000 65.000
44.28000 54.000
44.32000 55.000
44.36000 54.000
44.40000 68.000
44.44000 47.000
44.48000 59.000
44.52000 65.000
44.56000 65.000
44.60000 77.000
44.64000 48.000
44.68000 58.000
44.72000 56.000
44.76000 48.000
44.80000 57.000
44.84000 73.000
44.88000 66.000
44.92000 56.000
44.96000 78.000
45.00000 86.000
45.04000 91.000
45.08000 111.000
45.12000 160.000
45.16000 160.000
45.20000 224.000
45.24000 301.000
45.28000 401.000
45.32000 473.000
45.36000 459.000
45.40000 402.000
45.44000 345.000
45.48000 300.000
45.52000 247.000
45.56000 168.000
45.60000 146.000
45.64000 101.000
45.68000 102.000
45.72000 82.000
45.76000 85.000
45.80000 57.000
45.84000 63.000
45.88000 55.000
45.92000 67.000
45.96000 65.000
46.00000 57.000
46.04000 65.000
46.08000 52.000
46.12000 50.000
46.16000 62.000
46.20000 62.000
46.24000 51.000
46.28000 50.000
46.32000 50.000
46.36000 46.000
46.40000 43.000
46.44000 47.000
46.48000 49.000
46.52000 66.000
46.56000 53.000
46.60000 51.000
46.64000 43.000
46.68000 40.000
46.72000 52.000
46.76000 55.000
46.80000 55.000
46.84000 45.000
46.88000 48.000
46.92000 40.000
46.96000 53.000
47.00000 43.000
47.04000 54.000
47.08000 52.000
47.12000 50.000
47.16000 49.000
47.20000 50.000
47.24000 36.000
47.28000 41.000
47.32000 56.000
47.36000 47.000
47.40000 47.000
47.44000 46.000
47.48000 56.000
47.52000 59.000
47.56000 47.000
47.60000 63.000
47.64000 63.000
47.68000 68.000
47.72000 56.000
47.76000 76.000
47.80000 108.000
47.84000 113.000
47.88000 147.000
47.92000 175.000
47.96000 158.000
48.00000 138.000
48.04000 132.000
48.08000 119.000
48.12000 103.000
48.16000 72.000
48.20000 77.000
48.24000 58.000
48.28000 52.000
48.32000 51.000
48.36000 55.000
48.40000 46.000
48.44000 57.000
48.48000 48.000
48.52000 52.000
48.56000 42.000
48.60000 60.000
48.64000 55.000
48.68000 61.000
48.72000 45.000
48.76000 47.000
48.80000 45.000
48.84000 44.000
48.88000 39.000
48.92000 71.000
48.96000 58.000
49.00000 42.000
49.04000 51.000
49.08000 33.000
49.12000 46.000
49.16000 38.000
49.20000 39.000
49.24000 47.000
49.28000 47.000
49.32000 51.000
49.36000 43.000
49.40000 37.000
49.44000 38.000
49.48000 50.000
49.52000 38.000
49.56000 50.000
49.60000 34.000
49.64000 37.000
49.68000 49.000
49.72000 40.000
49.76000 41.000
49.80000 50.000
49.84000 47.000
49.88000 41.000
49.92000 47.000
49.96000 45.000
50.00000 36.000
50.04000 33.000
50.08000 51.000
50.12000 41.000
50.16000 48.000
50.20000 54.000
50.24000 32.000
50.28000 49.000
50.32000 51.000
50.36000 53.000
50.40000 53.000
50.44000 45.000
50.48000 47.000
50.52000 51.000
50.56000 43.000
50.60000 52.000
50.64000 42.000
50.68000 42.000
50.72000 45.000
50.76000 39.000
50.80000 39.000
50.84000 36.000
50.88000 44.000
50.92000 53.000
50.96000 32.000
51.00000 45.000
51.04000 46.000
51.08000 39.000
51.12000 40.000
51.16000 51.000
51.20000 39.000
51.24000 44.000
51.28000 44.000
51.32000 42.000
51.36000 45.000
51.40000 41.000
51.44000 40.000
51.48000 43.000
51.52000 38.000
51.56000 44.000
51.60000 41.000
51.64000 44.000
51.68000 42.000
51.72000 54.000
51.76000 41.000
51.80000 44.000
51.84000 39.000
51.88000 43.000
51.92000 46.000
51.96000 36.000
52.00000 51.000
52.04000 45.000
52.08000 38.000
52.12000 44.000
52.16000 55.000
52.20000 43.000
52.24000 32.000
52.28000 39.000
52.32000 63.000
52.36000 41.000
52.40000 45.000
52.44000 36.000
52.48000 52.000
52.52000 50.000
52.56000 59.000
52.60000 48.000
52.64000 52.000
52.68000 61.000
52.72000 77.000
52.76000 80.000
52.80000 106.000
52.84000 105.000
52.88000 125.000
52.92000 102.000
52.96000 87.000
53.00000 80.000
53.04000 68.000
53.08000 70.000
53.12000 55.000
53.16000 50.000
53.20000 57.000
53.24000 59.000
53.28000 32.000
53.32000 45.000
53.36000 43.000
53.40000 39.000
53.44000 56.000
53.48000 36.000
53.52000 56.000
53.56000 45.000
53.60000 44.000
53.64000 50.000
53.68000 42.000
53.72000 43.000
53.76000 36.000
53.80000 34.000
53.84000 40.000
53.88000 41.000
53.92000 37.000
53.96000 41.000
54.00000 38.000
54.04000 39.000
54.08000 32.000
54.12000 44.000
54.16000 33.000
54.20000 33.000
54.24000 49.000
54.28000 41.000
54.32000 42.000
54.36000 45.000
54.40000 48.000
54.44000 44.000
54.48000 45.000
54.52000 39.000
54.56000 30.000
54.60000 40.000
54.64000 30.000
54.68000 43.000
54.72000 41.000
54.76000 44.000
54.80000 43.000
54.84000 43.000
54.88000 57.000
54.92000 45.000
54.96000 55.000
55.00000 64.000
55.04000 94.000
55.08000 107.000
55.12000 126.000
55.16000 114.000
55.20000 128.000
55.24000 143.000
55.28000 152.000
55.32000 114.000
55.36000 105.000
55.40000 91.000
55.44000 73.000
55.48000 70.000
55.52000 55.000
55.56000 56.000
55.60000 46.000
55.64000 44.000
55.68000 43.000
55.72000 45.000
55.76000 46.000
55.80000 30.000
55.84000 45.000
55.88000 49.000
55.92000 36.000
55.96000 51.000
56.00000 56.000
56.04000 40.000
56.08000 37.000
56.12000 33.000
56.16000 44.000
56.20000 43.000
56.24000 34.000
56.28000 43.000
56.32000 31.000
56.36000 41.000
56.40000 37.000
56.44000 50.000
56.48000 33.000
56.52000 43.000
56.56000 31.000
56.60000 48.000
56.64000 46.000
56.68000 37.000
56.72000 52.000
56.76000 34.000
56.80000 32.000
56.84000 41.000
56.88000 37.000
56.92000 43.000
56.96000 41.000
57.00000 34.000
57.04000 42.000
57.08000 37.000
57.12000 41.000
57.16000 43.000
57.20000 54.000
57.24000 48.000
57.28000 67.000
57.32000 66.000
57.36000 80.000
57.40000 92.000
57.44000 103.000
57.48000 86.000
57.52000 96.000
57.56000 98.000
57.60000 88.000
57.64000 77.000
57.68000 70.000
57.72000 76.000
57.76000 58.000
57.80000 37.000
57.84000 45.000
57.88000 44.000
57.92000 39.000
57.96000 42.000
58.00000 31.000
58.04000 52.000
58.08000 47.000
58.12000 35.000
58.16000 36.000
58.20000 40.000
58.24000 51.000
58.28000 37.000
58.32000 32.000
58.36000 42.000
58.40000 38.000
58.44000 37.000
58.48000 46.000
58.52000 43.000
58.56000 45.000
58.60000 39.000
58.64000 38.000
58.68000 32.000
58.72000 38.000
58.76000 39.000
58.80000 37.000
58.84000 27.000
58.88000 48.000
58.92000 24.000
58.96000 48.000
59.00000 40.000
59.04000 38.000
59.08000 34.000
59.12000 41.000
59.16000 43.000
59.20000 35.000
59.24000 42.000
59.28000 36.000
59.32000 35.000
59.36000 46.000
59.40000 24.000
59.44000 38.000
59.48000 47.000
59.52000 30.000
59.56000 36.000
59.60000 31.000
59.64000 22.000
59.68000 40.000
59.72000 33.000
59.76000 39.000
59.80000 34.000
59.84000 49.000
59.88000 33.000
59.92000 41.000