File: XRD/34.xy
5.00000 590.000
5.04000 603.000
5.08000 581.000
5.12000 583.000
5.16000 564.000
5.20000 519.000
5.24000 587.000
5.28000 560.000
5.32000 561.000
5.36000 544.000
5.40000 528.000
5.44000 582.000
5.48000 551.000
5.52000 534.000
5.56000 543.000
5.60000 589.000
5.64000 531.000
5.68000 501.000
5.72000 492.000
5.76000 487.000
5.80000 501.000
5.84000 504.000
5.88000 476.000
5.92000 489.000
5.96000 521.000
6.00000 489.000
6.04000 504.000
6.08000 457.000
6.12000 487.000
6.16000 484.000
6.20000 467.000
6.24000 441.000
6.28000 446.000
6.32000 462.000
6.36000 463.000
6.40000 459.000
6.44000 462.000
6.48000 458.000
6.52000 489.000
6.56000 480.000
6.60000 427.000
6.64000 488.000
6.68000 411.000
6.72000 461.000
6.76000 426.000
6.80000 395.000
6.84000 420.000
6.88000 420.000
6.92000 385.000
6.96000 428.000
7.00000 423.000
7.04000 417.000
7.08000 436.000
7.12000 420.000
7.16000 402.000
7.20000 403.000
7.24000 419.000
7.28000 376.000
7.32000 421.000
7.36000 396.000
7.40000 390.000
7.44000 375.000
7.48000 358.000
7.52000 367.000
7.56000 360.000
7.60000 386.000
7.64000 379.000
7.68000 387.000
7.72000 361.000
7.76000 401.000
7.80000 366.000
7.84000 354.000
7.88000 355.000
7.92000 394.000
7.96000 393.000
8.00000 340.000
8.04000 371.000
8.08000 363.000
8.12000 342.000
8.16000 352.000
8.20000 353.000
8.24000 352.000
8.28000 318.000
8.32000 337.000
8.36000 319.000
8.40000 376.000
8.44000 324.000
8.48000 350.000
8.52000 313.000
8.56000 318.000
8.60000 347.000
8.64000 308.000
8.68000 326.000
8.72000 345.000
8.76000 335.000
8.80000 324.000
8.84000 289.000
8.88000 295.000
8.92000 340.000
8.96000 327.000
9.00000 306.000
9.04000 303.000
9.08000 335.000
9.12000 303.000
9.16000 347.000
9.20000 370.000
9.24000 301.000
9.28000 280.000
9.32000 302.000
9.36000 284.000
9.40000 313.000
9.44000 301.000
9.48000 276.000
9.52000 318.000
9.56000 282.000
9.60000 287.000
9.64000 259.000
9.68000 284.000
9.72000 309.000
9.76000 282.000
9.80000 314.000
9.84000 293.000
9.88000 306.000
9.92000 275.000
9.96000 280.000
10.00000 282.000
10.04000 303.000
10.08000 264.000
10.12000 274.000
10.16000 269.000
10.20000 251.000
10.24000 300.000
10.28000 270.000
10.32000 286.000
10.36000 291.000
10.40000 287.000
10.44000 303.000
10.48000 266.000
10.52000 266.000
10.56000 262.000
10.60000 241.000
10.64000 269.000
10.68000 259.000
10.72000 265.000
10.76000 260.000
10.80000 264.000
10.84000 267.000
10.88000 263.000
10.92000 261.000
10.96000 259.000
11.00000 259.000
11.04000 242.000
11.08000 251.000
11.12000 234.000
11.16000 241.000
11.20000 284.000
11.24000 258.000
11.28000 212.000
11.32000 254.000
11.36000 255.000
11.40000 250.000
11.44000 230.000
11.48000 227.000
11.52000 246.000
11.56000 259.000
11.60000 216.000
11.64000 275.000
11.68000 241.000
11.72000 251.000
11.76000 251.000
11.80000 220.000
11.84000 236.000
11.88000 256.000
11.92000 249.000
11.96000 241.000
12.00000 233.000
12.04000 214.000
12.08000 223.000
12.12000 196.000
12.16000 229.000
12.20000 233.000
12.24000 218.000
12.28000 209.000
12.32000 240.000
12.36000 236.000
12.40000 216.000
12.44000 233.000
12.48000 210.000
12.52000 203.000
12.56000 229.000
12.60000 218.000
12.64000 218.000
12.68000 220.000
12.72000 226.000
12.76000 227.000
12.80000 182.000
12.84000 233.000
12.88000 220.000
12.92000 221.000
12.96000 240.000
13.00000 220.000
13.04000 211.000
13.08000 237.000
13.12000 226.000
13.16000 219.000
13.20000 223.000
13.24000 237.000
13.28000 200.000
13.32000 231.000
13.36000 216.000
13.40000 211.000
13.44000 222.000
13.48000 212.000
13.52000 215.000
13.56000 208.000
13.60000 227.000
13.64000 229.000
13.68000 257.000
13.72000 225.000
13.76000 195.000
13.80000 223.000
13.84000 259.000
13.88000 228.000
13.92000 250.000
13.96000 244.000
14.00000 268.000
14.04000 288.000
14.08000 287.000
14.12000 322.000
14.16000 340.000
14.20000 336.000
14.24000 345.000
14.28000 375.000
14.32000 394.000
14.36000 472.000
14.40000 464.000
14.44000 535.000
14.48000 626.000
14.52000 691.000
14.56000 810.000
14.60000 959.000
14.64000 1186.000
14.68000 1415.000
14.72000 1804.000
14.76000 2106.000
14.80000 2244.000
14.84000 1776.000
14.88000 1265.000
14.92000 807.000
14.96000 566.000
15.00000 383.000
15.04000 320.000
15.08000 260.000
15.12000 227.000
15.16000 224.000
15.20000 216.000
15.24000 191.000
15.28000 193.000
15.32000 180.000
15.36000 169.000
15.40000 162.000
15.44000 188.000
15.48000 172.000
15.52000 177.000
15.56000 161.000
15.60000 191.000
15.64000 183.000
15.68000 170.000
15.72000 180.000
15.76000 187.000
15.80000 184.000
15.84000 202.000
15.88000 181.000
15.92000 180.000
15.96000 182.000
16.00000 170.000
16.04000 166.000
16.08000 161.000
16.12000 160.000
16.16000 167.000
16.20000 198.000
16.24000 171.000
16.28000 165.000
16.32000 178.000
16.36000 158.000
16.40000 171.000
16.44000 141.000
16.48000 162.000
16.52000 152.000
16.56000 170.000
16.60000 171.000
16.64000 162.000
16.68000 175.000
16.72000 180.000
16.76000 168.000
16.80000 185.000
16.84000 184.000
16.88000 170.000
16.92000 153.000
16.96000 159.000
17.00000 168.000
17.04000 161.000
17.08000 177.000
17.12000 163.000
17.16000 158.000
17.20000 178.000
17.24000 195.000
17.28000 155.000
17.32000 161.000
17.36000 170.000
17.40000 169.000
17.44000 160.000
17.48000 164.000
17.52000 156.000
17.56000 175.000
17.60000 178.000
17.64000 174.000
17.68000 163.000
17.72000 173.000
17.76000 155.000
17.80000 149.000
17.84000 168.000
17.88000 159.000
17.92000 177.000
17.96000 195.000
18.00000 162.000
18.04000 168.000
18.08000 154.000
18.12000 150.000
18.16000 164.000
18.20000 178.000
18.24000 143.000
18.28000 158.000
18.32000 158.000
18.36000 162.000
18.40000 178.000
18.44000 179.000
18.48000 150.000
18.52000 157.000
18.56000 170.000
18.60000 168.000
18.64000 147.000
18.68000 169.000
18.72000 165.000
18.76000 174.000
18.80000 136.000
18.84000 149.000
18.88000 165.000
18.92000 160.000
18.96000 177.000
19.00000 169.000
19.04000 181.000
19.08000 156.000
19.12000 162.000
19.16000 168.000
19.20000 173.000
19.24000 167.000
19.28000 172.000
19.32000 159.000
19.36000 147.000
19.40000 162.000
19.44000 164.000
19.48000 175.000
19.52000 163.000
19.56000 181.000
19.60000 172.000
19.64000 187.000
19.68000 191.000
19.72000 165.000
19.76000 167.000
19.80000 161.000
19.84000 175.000
19.88000 174.000
19.92000 208.000
19.96000 186.000
20.00000 172.000
20.04000 160.000
20.08000 198.000
20.12000 177.000
20.16000 183.000
20.20000 189.000
20.24000 212.000
20.28000 186.000
20.32000 189.000
20.36000 193.000
20.40000 225.000
20.44000 224.000
20.48000 213.000
20.52000 280.000
20.56000 289.000
20.60000 314.000
20.64000 359.000
20.68000 433.000
20.72000 465.000
20.76000 676.000
20.80000 899.000
20.84000 1023.000
20.88000 1367.000
20.92000 1657.000
20.96000 2088.000
21.00000 2430.000
21.04000 2426.000
21.08000 1737.000
21.12000 1124.000
21.16000 739.000
21.20000 461.000
21.24000 332.000
21.28000 275.000
21.32000 207.000
21.36000 206.000
21.40000 198.000
21.44000 200.000
21.48000 194.000
21.52000 199.000
21.56000 189.000
21.60000 178.000
21.64000 143.000
21.68000 175.000
21.72000 166.000
21.76000 150.000
21.80000 177.000
21.84000 152.000
21.88000 173.000
21.92000 164.000
21.96000 158.000
22.00000 161.000
22.04000 153.000
22.08000 181.000
22.12000 163.000
22.16000 178.000
22.20000 162.000
22.24000 164.000
22.28000 175.000
22.32000 119.000
22.36000 160.000
22.40000 154.000
22.44000 162.000
22.48000 159.000
22.52000 161.000
22.56000 175.000
22.60000 165.000
22.64000 172.000
22.68000 169.000
22.72000 177.000
22.76000 171.000
22.80000 175.000
22.84000 177.000
22.88000 172.000
22.92000 166.000
22.96000 154.000
23.00000 193.000
23.04000 166.000
23.08000 175.000
23.12000 170.000
23.16000 177.000
23.20000 175.000
23.24000 180.000
23.28000 160.000
23.32000 171.000
23.36000 178.000
23.40000 167.000
23.44000 168.000
23.48000 179.000
23.52000 152.000
23.56000 158.000
23.60000 137.000
23.64000 168.000
23.68000 165.000
23.72000 167.000
23.76000 172.000
23.80000 184.000
23.84000 161.000
23.88000 167.000
23.92000 164.000
23.96000 140.000
24.00000 159.000
24.04000 166.000
24.08000 149.000
24.12000 165.000
24.16000 172.000
24.20000 154.000
24.24000 173.000
24.28000 186.000
24.32000 137.000
24.36000 153.000
24.40000 166.000
24.44000 161.000
24.48000 168.000
24.52000 168.000
24.56000 163.000
24.60000 170.000
24.64000 180.000
24.68000 190.000
24.72000 160.000
24.76000 180.000
24.80000 178.000
24.84000 170.000
24.88000 152.000
24.92000 150.000
24.96000 160.000
25.00000 165.000
25.04000 169.000
25.08000 166.000
25.12000 138.000
25.16000 162.000
25.20000 177.000
25.24000 161.000
25.28000 174.000
25.32000 169.000
25.36000 150.000
25.40000 195.000
25.44000 179.000
25.48000 187.000
25.52000 222.000
25.56000 239.000
25.60000 297.000
25.64000 337.000
25.68000 433.000
25.72000 511.000
25.76000 693.000
25.80000 823.000
25.84000 896.000
25.88000 802.000
25.92000 584.000
25.96000 387.000
26.00000 252.000
26.04000 221.000
26.08000 150.000
26.12000 164.000
26.16000 153.000
26.20000 133.000
26.24000 130.000
26.28000 144.000
26.32000 145.000
26.36000 155.000
26.40000 148.000
26.44000 150.000
26.48000 159.000
26.52000 139.000
26.56000 155.000
26.60000 134.000
26.64000 141.000
26.68000 123.000
26.72000 133.000
26.76000 175.000
26.80000 135.000
26.84000 116.000
26.88000 156.000
26.92000 125.000
26.96000 120.000
27.00000 142.000
27.04000 135.000
27.08000 135.000
27.12000 127.000
27.16000 125.000
27.20000 135.000
27.24000 125.000
27.28000 120.000
27.32000 150.000
27.36000 132.000
27.40000 147.000
27.44000 137.000
27.48000 103.000
27.52000 116.000
27.56000 137.000
27.60000 121.000
27.64000 128.000
27.68000 142.000
27.72000 136.000
27.76000 138.000
27.80000 116.000
27.84000 131.000
27.88000 122.000
27.92000 124.000
27.96000 143.000
28.00000 140.000
28.04000 112.000
28.08000 151.000
28.12000 138.000
28.16000 130.000
28.20000 114.000
28.24000 145.000
28.28000 123.000
28.32000 134.000
28.36000 133.000
28.40000 125.000
28.44000 123.000
28.48000 156.000
28.52000 120.000
28.56000 142.000
28.60000 147.000
28.64000 135.000
28.68000 122.000
28.72000 121.000
28.76000 124.000
28.80000 137.000
28.84000 132.000
28.88000 128.000
28.92000 137.000
28.96000 120.000
29.00000 128.000
29.04000 121.000
29.08000 138.000
29.12000 125.000
29.16000 134.000
29.20000 122.000
29.24000 158.000
29.28000 132.000
29.32000 135.000
29.36000 129.000
29.40000 128.000
29.44000 128.000
29.48000 174.000
29.52000 158.000
29.56000 170.000
29.60000 242.000
29.64000 232.000
29.68000 284.000
29.72000 315.000
29.76000 452.000
29.80000 588.000
29.84000 766.000
29.88000 862.000
29.92000 858.000
29.96000 736.000
30.00000 628.000
30.04000 416.000
30.08000 313.000
30.12000 231.000
30.16000 171.000
30.20000 159.000
30.24000 149.000
30.28000 128.000
30.32000 135.000
30.36000 114.000
30.40000 105.000
30.44000 124.000
30.48000 111.000
30.52000 124.000
30.56000 114.000
30.60000 113.000
30.64000 130.000
30.68000 99.000
30.72000 115.000
30.76000 119.000
30.80000 118.000
30.84000 107.000
30.88000 115.000
30.92000 106.000
30.96000 108.000
31.00000 133.000
31.04000 109.000
31.08000 103.000
31.12000 127.000
31.16000 126.000
31.20000 135.000
31.24000 125.000
31.28000 103.000
31.32000 129.000
31.36000 106.000
31.40000 107.000
31.44000 109.000
31.48000 120.000
31.52000 106.000
31.56000 104.000
31.60000 103.000
31.64000 104.000
31.68000 107.000
31.72000 117.000
31.76000 106.000
31.80000 120.000
31.84000 109.000
31.88000 124.000
31.92000 133.000
31.96000 130.000
32.00000 129.000
32.04000 122.000
32.08000 131.000
32.12000 133.000
32.16000 129.000
32.20000 124.000
32.24000 123.000
32.28000 134.000
32.32000 103.000
32.36000 129.000
32.40000 132.000
32.44000 128.000
32.48000 150.000
32.52000 118.000
32.56000 132.000
32.60000 117.000
32.64000 125.000
32.68000 130.000
32.72000 111.000
32.76000 142.000
32.80000 123.000
32.84000 138.000
32.88000 137.000
32.92000 134.000
32.96000 131.000
33.00000 163.000
33.04000 156.000
33.08000 149.000
33.12000 179.000
33.16000 209.000
33.20000 233.000
33.24000 293.000
33.28000 370.000
33.32000 531.000
33.36000 773.000
33.40000 1022.000
33.44000 1450.000
33.48000 1923.000
33.52000 2336.000
33.56000 2490.000
33.60000 2299.000
33.64000 1673.000
33.68000 1202.000
33.72000 732.000
33.76000 532.000
33.80000 304.000
33.84000 255.000
33.88000 176.000
33.92000 155.000
33.96000 149.000
34.00000 123.000
34.04000 133.000
34.08000 124.000
34.12000 117.000
34.16000 119.000
34.20000 106.000
34.24000 118.000
34.28000 99.000
34.32000 136.000
34.36000 97.000
34.40000 120.000
34.44000 111.000
34.48000 102.000
34.52000 133.000
34.56000 107.000
34.60000 93.000
34.64000 105.000
34.68000 121.000
34.72000 107.000
34.76000 103.000
34.80000 122.000
34.84000 91.000
34.88000 91.000
34.92000 93.000
34.96000 107.000
35.00000 120.000
35.04000 114.000
35.08000 111.000
35.12000 131.000
35.16000 104.000
35.20000 113.000
35.24000 118.000
35.28000 104.000
35.32000 121.000
35.36000 121.000
35.40000 108.000
35.44000 93.000
35.48000 110.000
35.52000 136.000
35.56000 99.000
35.60000 112.000
35.64000 112.000
35.68000 112.000
35.72000 87.000
35.76000 101.000
35.80000 97.000
35.84000 101.000
35.88000 89.000
35.92000 109.000
35.96000 92.000
36.00000 89.000
36.04000 121.000
36.08000 103.000
36.12000 120.000
36.16000 106.000
36.20000 126.000
36.24000 113.000
36.28000 122.000
36.32000 115.000
36.36000 130.000
36.40000 124.000
36.44000 123.000
36.48000 139.000
36.52000 175.000
36.56000 178.000
36.60000 276.000
36.64000 353.000
36.68000 451.000
36.72000 681.000
36.76000 917.000
36.80000 1317.000
36.84000 1674.000
36.88000 1762.000
36.92000 1640.000
36.96000 1409.000
37.00000 952.000
37.04000 627.000
37.08000 402.000
37.12000 250.000
37.16000 177.000
37.20000 153.000
37.24000 124.000
37.28000 92.000
37.32000 119.000
37.36000 104.000
37.40000 105.000
37.44000 98.000
37.48000 71.000
37.52000 93.000
37.56000 93.000
37.60000 96.000
37.64000 91.000
37.68000 94.000
37.72000 83.000
37.76000 91.000
37.80000 103.000
37.84000 92.000
37.88000 85.000
37.92000 77.000
37.96000 96.000
38.00000 91.000
38.04000 94.000
38.08000 82.000
38.12000 87.000
38.16000 89.000
38.20000 114.000
38.24000 77.000
38.28000 65.000
38.32000 86.000
38.36000 92.000
38.40000 89.000
38.44000 107.000
38.48000 94.000
38.52000 108.000
38.56000 79.000
38.60000 93.000
38.64000 91.000
38.68000 86.000
38.72000 94.000
38.76000 90.000
38.80000 85.000
38.84000 85.000
38.88000 94.000
38.92000 86.000
38.96000 91.000
39.00000 91.000
39.04000 82.000
39.08000 84.000
39.12000 86.000
39.16000 61.000
39.20000 71.000
39.24000 76.000
39.28000 89.000
39.32000 82.000
39.36000 101.000
39.40000 89.000
39.44000 89.000
39.48000 80.000
39.52000 80.000
39.56000 73.000
39.60000 74.000
39.64000 84.000
39.68000 76.000
39.72000 86.000
39.76000 86.000
39.80000 91.000
39.84000 82.000
39.88000 66.000
39.92000 97.000
39.96000 85.000
40.00000 73.000
40.04000 101.000
40.08000 92.000
40.12000 87.000
40.16000 89.000
40.20000 107.000
40.24000 87.000
40.28000 72.000
40.32000 85.000
40.36000 118.000
40.40000 75.000
40.44000 72.000
40.48000 81.000
40.52000 93.000
40.56000 72.000
40.60000 90.000
40.64000 83.000
40.68000 66.000
40.72000 81.000
40.76000 84.000
40.80000 88.000
40.84000 88.000
40.88000 103.000
40.92000 106.000
40.96000 111.000
41.00000 103.000
41.04000 117.000
41.08000 114.000
41.12000 103.000
41.16000 103.000
41.20000 105.000
41.24000 96.000
41.28000 109.000
41.32000 104.000
41.36000 83.000
41.40000 103.000
41.44000 111.000
41.48000 87.000
41.52000 80.000
41.56000 93.000
41.60000 95.000
41.64000 98.000
41.68000 100.000
41.72000 96.000
41.76000 85.000
41.80000 98.000
41.84000 97.000
41.88000 90.000
41.92000 101.000
41.96000 96.000
42.00000 117.000
42.04000 93.000
42.08000 116.000
42.12000 118.000
42.16000 92.000
42.20000 92.000
42.24000 117.000
42.28000 126.000
42.32000 116.000
42.36000 106.000
42.40000 150.000
42.44000 140.000
42.48000 156.000
42.52000 194.000
42.56000 271.000
42.60000 345.000
42.64000 460.000
42.68000 687.000
42.72000 951.000
42.76000 1411.000
42.80000 1807.000
42.84000 2014.000
42.88000 1967.000
42.92000 1745.000
42.96000 1362.000
43.00000 1039.000
43.04000 709.000
43.08000 432.000
43.12000 299.000
43.16000 238.000
43.20000 167.000
43.24000 139.000
43.28000 146.000
43.32000 124.000
43.36000 123.000
43.40000 123.000
43.44000 111.000
43.48000 122.000
43.52000 130.000
43.56000 132.000
43.60000 145.000
43.64000 123.000
43.68000 107.000
43.72000 106.000
43.76000 106.000
43.80000 121.000
43.84000 108.000
43.88000 110.000
43.92000 109.000
43.96000 117.000
44.00000 106.000
44.04000 129.000
44.08000 107.000
44.12000 99.000
44.16000 114.000
44.20000 113.000
44.24000 113.000
44.28000 106.000
44.32000 115.000
44.36000 109.000
44.40000 123.000
44.44000 97.000
44.48000 86.000
44.52000 100.000
44.56000 99.000
44.60000 116.000
44.64000 96.000
44.68000 110.000
44.72000 101.000
44.76000 110.000
44.80000 116.000
44.84000 99.000
44.88000 105.000
44.92000 130.000
44.96000 117.000
45.00000 115.000
45.04000 103.000
45.08000 130.000
45.12000 115.000
45.16000 124.000
45.20000 129.000
45.24000 136.000
45.28000 213.000
45.32000 274.000
45.36000 357.000
45.40000 508.000
45.44000 745.000
45.48000 1123.000
45.52000 1483.000
45.56000 1748.000
45.60000 1855.000
45.64000 1682.000
45.68000 1366.000
45.72000 1120.000
45.76000 811.000
45.80000 511.000
45.84000 358.000
45.88000 237.000
45.92000 201.000
45.96000 170.000
46.00000 128.000
46.04000 142.000
46.08000 107.000
46.12000 103.000
46.16000 96.000
46.20000 131.000
46.24000 96.000
46.28000 96.000
46.32000 95.000
46.36000 85.000
46.40000 99.000
46.44000 88.000
46.48000 95.000
46.52000 108.000
46.56000 93.000
46.60000 78.000
46.64000 96.000
46.68000 89.000
46.72000 85.000
46.76000 92.000
46.80000 68.000
46.84000 104.000
46.88000 97.000
46.92000 83.000
46.96000 85.000
47.00000 76.000
47.04000 79.000
47.08000 85.000
47.12000 101.000
47.16000 87.000
47.20000 76.000
47.24000 88.000
47.28000 63.000
47.32000 79.000
47.36000 83.000
47.40000 74.000
47.44000 88.000
47.48000 77.000
47.52000 71.000
47.56000 81.000
47.60000 82.000
47.64000 78.000
47.68000 74.000
47.72000 61.000
47.76000 85.000
47.80000 78.000
47.84000 87.000
47.88000 91.000
47.92000 102.000
47.96000 81.000
48.00000 92.000
48.04000 108.000
48.08000 133.000
48.12000 154.000
48.16000 162.000
48.20000 182.000
48.24000 183.000
48.28000 169.000
48.32000 140.000
48.36000 136.000
48.40000 105.000
48.44000 96.000
48.48000 88.000
48.52000 82.000
48.56000 71.000
48.60000 75.000
48.64000 79.000
48.68000 73.000
48.72000 81.000
48.76000 57.000
48.80000 73.000
48.84000 69.000
48.88000 69.000
48.92000 69.000
48.96000 78.000
49.00000 77.000
49.04000 66.000
49.08000 73.000
49.12000 62.000
49.16000 58.000
49.20000 71.000
49.24000 68.000
49.28000 70.000
49.32000 74.000
49.36000 79.000
49.40000 73.000
49.44000 87.000
49.48000 72.000
49.52000 66.000
49.56000 52.000
49.60000 72.000
49.64000 74.000
49.68000 79.000
49.72000 69.000
49.76000 75.000
49.80000 74.000
49.84000 64.000
49.88000 73.000
49.92000 58.000
49.96000 62.000
50.00000 64.000
50.04000 62.000
50.08000 63.000
50.12000 69.000
50.16000 69.000
50.20000 72.000
50.24000 58.000
50.28000 61.000
50.32000 56.000
50.36000 51.000
50.40000 66.000
50.44000 58.000
50.48000 56.000
50.52000 72.000
50.56000 65.000
50.60000 66.000
50.64000 76.000
50.68000 61.000
50.72000 79.000
50.76000 74.000
50.80000 82.000
50.84000 76.000
50.88000 87.000
50.92000 62.000
50.96000 68.000
51.00000 71.000
51.04000 83.000
51.08000 60.000
51.12000 68.000
51.16000 60.000
51.20000 57.000
51.24000 59.000
51.28000 57.000
51.32000 53.000
51.36000 56.000
51.40000 63.000
51.44000 65.000
51.48000 76.000
51.52000 72.000
51.56000 69.000
51.60000 80.000
51.64000 68.000
51.68000 63.000
51.72000 69.000
51.76000 58.000
51.80000 77.000
51.84000 58.000
51.88000 60.000
51.92000 57.000
51.96000 53.000
52.00000 55.000
52.04000 60.000
52.08000 59.000
52.12000 66.000
52.16000 57.000
52.20000 60.000
52.24000 65.000
52.28000 68.000
52.32000 66.000
52.36000 63.000
52.40000 60.000
52.44000 72.000
52.48000 76.000
52.52000 63.000
52.56000 72.000
52.60000 71.000
52.64000 60.000
52.68000 66.000
52.72000 63.000
52.76000 68.000
52.80000 86.000
52.84000 84.000
52.88000 84.000
52.92000 106.000
52.96000 150.000
53.00000 203.000
53.04000 231.000
53.08000 307.000
53.12000 370.000
53.16000 350.000
53.20000 330.000
53.24000 293.000
53.28000 245.000
53.32000 220.000
53.36000 173.000
53.40000 142.000
53.44000 115.000
53.48000 99.000
53.52000 77.000
53.56000 76.000
53.60000 71.000
53.64000 71.000
53.68000 57.000
53.72000 67.000
53.76000 58.000
53.80000 59.000
53.84000 61.000
53.88000 76.000
53.92000 54.000
53.96000 64.000
54.00000 58.000
54.04000 64.000
54.08000 61.000
54.12000 70.000
54.16000 47.000
54.20000 71.000
54.24000 57.000
54.28000 58.000
54.32000 61.000
54.36000 58.000
54.40000 66.000
54.44000 81.000
54.48000 69.000
54.52000 60.000
54.56000 48.000
54.60000 65.000
54.64000 56.000
54.68000 67.000
54.72000 64.000
54.76000 70.000
54.80000 52.000
54.84000 66.000
54.88000 66.000
54.92000 63.000
54.96000 69.000
55.00000 73.000
55.04000 64.000
55.08000 79.000
55.12000 69.000
55.16000 77.000
55.20000 95.000
55.24000 86.000
55.28000 112.000
55.32000 144.000
55.36000 203.000
55.40000 257.000
55.44000 350.000
55.48000 330.000
55.52000 401.000
55.56000 369.000
55.60000 355.000
55.64000 291.000
55.68000 260.000
55.72000 185.000
55.76000 154.000
55.80000 128.000
55.84000 99.000
55.88000 88.000
55.92000 80.000
55.96000 72.000
56.00000 74.000
56.04000 53.000
56.08000 55.000
56.12000 55.000
56.16000 70.000
56.20000 48.000
56.24000 59.000
56.28000 72.000
56.32000 60.000
56.36000 68.000
56.40000 55.000
56.44000 54.000
56.48000 74.000
56.52000 68.000
56.56000 57.000
56.60000 72.000
56.64000 69.000
56.68000 57.000
56.72000 58.000
56.76000 52.000
56.80000 56.000
56.84000 63.000
56.88000 52.000
56.92000 73.000
56.96000 77.000
57.00000 57.000
57.04000 54.000
57.08000 55.000
57.12000 54.000
57.16000 66.000
57.20000 84.000
57.24000 64.000
57.28000 60.000
57.32000 70.000
57.36000 59.000
57.40000 68.000
57.44000 60.000
57.48000 66.000
57.52000 94.000
57.56000 102.000
57.60000 113.000
57.64000 123.000
57.68000 185.000
57.72000 188.000
57.76000 268.000
57.80000 292.000
57.84000 275.000
57.88000 248.000
57.92000 225.000
57.96000 191.000
58.00000 157.000
58.04000 119.000
58.08000 104.000
58.12000 88.000
58.16000 77.000
58.20000 78.000
58.24000 57.000
58.28000 67.000
58.32000 65.000
58.36000 66.000
58.40000 76.000
58.44000 55.000
58.48000 60.000
58.52000 55.000
58.56000 60.000
58.60000 72.000
58.64000 60.000
58.68000 57.000
58.72000 46.000
58.76000 54.000
58.80000 68.000
58.84000 60.000
58.88000 58.000
58.92000 48.000
58.96000 57.000
59.00000 54.000
59.04000 49.000
59.08000 49.000
59.12000 45.000
59.16000 57.000
59.20000 46.000
59.24000 49.000
59.28000 61.000
59.32000 74.000
59.36000 52.000
59.40000 47.000
59.44000 51.000
59.48000 43.000
59.52000 68.000
59.56000 59.000
59.60000 50.000
59.64000 57.000
59.68000 51.000
59.72000 47.000
59.76000 49.000
59.80000 49.000
59.84000 45.000
59.88000 56.000
59.92000 64.000