File: XRD/35.xy
5.00000 1657.000
5.04000 1654.000
5.08000 1650.000
5.12000 1594.000
5.16000 1583.000
5.20000 1598.000
5.24000 1573.000
5.28000 1572.000
5.32000 1528.000
5.36000 1551.000
5.40000 1607.000
5.44000 1478.000
5.48000 1475.000
5.52000 1495.000
5.56000 1517.000
5.60000 1416.000
5.64000 1464.000
5.68000 1472.000
5.72000 1513.000
5.76000 1415.000
5.80000 1452.000
5.84000 1455.000
5.88000 1455.000
5.92000 1355.000
5.96000 1406.000
6.00000 1395.000
6.04000 1381.000
6.08000 1330.000
6.12000 1470.000
6.16000 1369.000
6.20000 1368.000
6.24000 1345.000
6.28000 1360.000
6.32000 1331.000
6.36000 1344.000
6.40000 1249.000
6.44000 1358.000
6.48000 1361.000
6.52000 1285.000
6.56000 1251.000
6.60000 1255.000
6.64000 1250.000
6.68000 1247.000
6.72000 1300.000
6.76000 1297.000
6.80000 1239.000
6.84000 1234.000
6.88000 1275.000
6.92000 1226.000
6.96000 1244.000
7.00000 1237.000
7.04000 1200.000
7.08000 1212.000
7.12000 1213.000
7.16000 1228.000
7.20000 1234.000
7.24000 1212.000
7.28000 1259.000
7.32000 1227.000
7.36000 1159.000
7.40000 1236.000
7.44000 1196.000
7.48000 1172.000
7.52000 1218.000
7.56000 1250.000
7.60000 1132.000
7.64000 1222.000
7.68000 1174.000
7.72000 1180.000
7.76000 1179.000
7.80000 1217.000
7.84000 1223.000
7.88000 1183.000
7.92000 1185.000
7.96000 1233.000
8.00000 1270.000
8.04000 1193.000
8.08000 1313.000
8.12000 1348.000
8.16000 1352.000
8.20000 1397.000
8.24000 1398.000
8.28000 1343.000
8.32000 1405.000
8.36000 1320.000
8.40000 1329.000
8.44000 1221.000
8.48000 1241.000
8.52000 1203.000
8.56000 1149.000
8.60000 1134.000
8.64000 1126.000
8.68000 1114.000
8.72000 1117.000
8.76000 1097.000
8.80000 1065.000
8.84000 1083.000
8.88000 1113.000
8.92000 1096.000
8.96000 1016.000
9.00000 1102.000
9.04000 1035.000
9.08000 1028.000
9.12000 1105.000
9.16000 1117.000
9.20000 1098.000
9.24000 1040.000
9.28000 1108.000
9.32000 1079.000
9.36000 1063.000
9.40000 1091.000
9.44000 1154.000
9.48000 1094.000
9.52000 1083.000
9.56000 1162.000
9.60000 1086.000
9.64000 1111.000
9.68000 1144.000
9.72000 1090.000
9.76000 1077.000
9.80000 1076.000
9.84000 1036.000
9.88000 1053.000
9.92000 965.000
9.96000 998.000
10.00000 1034.000
10.04000 951.000
10.08000 966.000
10.12000 950.000
10.16000 992.000
10.20000 912.000
10.24000 906.000
10.28000 900.000
10.32000 931.000
10.36000 845.000
10.40000 892.000
10.44000 852.000
10.48000 835.000
10.52000 823.000
10.56000 810.000
10.60000 809.000
10.64000 839.000
10.68000 805.000
10.72000 815.000
10.76000 806.000
10.80000 831.000
10.84000 822.000
10.88000 795.000
10.92000 755.000
10.96000 759.000
11.00000 806.000
11.04000 837.000
11.08000 797.000
11.12000 807.000
11.16000 768.000
11.20000 713.000
11.24000 777.000
11.28000 749.000
11.32000 733.000
11.36000 799.000
11.40000 741.000
11.44000 778.000
11.48000 740.000
11.52000 781.000
11.56000 775.000
11.60000 847.000
11.64000 670.000
11.68000 751.000
11.72000 840.000
11.76000 805.000
11.80000 759.000
11.84000 825.000
11.88000 834.000
11.92000 854.000
11.96000 807.000
12.00000 857.000
12.04000 876.000
12.08000 910.000
12.12000 893.000
12.16000 842.000
12.20000 841.000
12.24000 809.000
12.28000 837.000
12.32000 853.000
12.36000 821.000
12.40000 784.000
12.44000 778.000
12.48000 817.000
12.52000 783.000
12.56000 938.000
12.60000 946.000
12.64000 935.000
12.68000 1012.000
12.72000 1021.000
12.76000 1020.000
12.80000 1031.000
12.84000 1057.000
12.88000 947.000
12.92000 906.000
12.96000 865.000
13.00000 824.000
13.04000 763.000
13.08000 744.000
13.12000 763.000
13.16000 710.000
13.20000 725.000
13.24000 702.000
13.28000 711.000
13.32000 723.000
13.36000 715.000
13.40000 679.000
13.44000 643.000
13.48000 691.000
13.52000 646.000
13.56000 705.000
13.60000 684.000
13.64000 687.000
13.68000 639.000
13.72000 637.000
13.76000 657.000
13.80000 624.000
13.84000 641.000
13.88000 706.000
13.92000 625.000
13.96000 647.000
14.00000 667.000
14.04000 694.000
14.08000 689.000
14.12000 648.000
14.16000 673.000
14.20000 693.000
14.24000 700.000
14.28000 718.000
14.32000 667.000
14.36000 659.000
14.40000 662.000
14.44000 699.000
14.48000 704.000
14.52000 703.000
14.56000 686.000
14.60000 709.000
14.64000 673.000
14.68000 687.000
14.72000 741.000
14.76000 728.000
14.80000 709.000
14.84000 756.000
14.88000 696.000
14.92000 674.000
14.96000 666.000
15.00000 713.000
15.04000 734.000
15.08000 685.000
15.12000 647.000
15.16000 725.000
15.20000 714.000
15.24000 674.000
15.28000 651.000
15.32000 672.000
15.36000 666.000
15.40000 738.000
15.44000 687.000
15.48000 691.000
15.52000 697.000
15.56000 692.000
15.60000 708.000
15.64000 675.000
15.68000 714.000
15.72000 690.000
15.76000 668.000
15.80000 690.000
15.84000 730.000
15.88000 732.000
15.92000 690.000
15.96000 716.000
16.00000 752.000
16.04000 730.000
16.08000 702.000
16.12000 741.000
16.16000 738.000
16.20000 710.000
16.24000 767.000
16.28000 757.000
16.32000 789.000
16.36000 816.000
16.40000 769.000
16.44000 867.000
16.48000 863.000
16.52000 923.000
16.56000 861.000
16.60000 943.000
16.64000 889.000
16.68000 936.000
16.72000 953.000
16.76000 888.000
16.80000 898.000
16.84000 879.000
16.88000 894.000
16.92000 845.000
16.96000 841.000
17.00000 777.000
17.04000 846.000
17.08000 768.000
17.12000 793.000
17.16000 799.000
17.20000 833.000
17.24000 755.000
17.28000 797.000
17.32000 837.000
17.36000 913.000
17.40000 845.000
17.44000 816.000
17.48000 811.000
17.52000 893.000
17.56000 818.000
17.60000 761.000
17.64000 839.000
17.68000 809.000
17.72000 866.000
17.76000 833.000
17.80000 791.000
17.84000 867.000
17.88000 819.000
17.92000 891.000
17.96000 839.000
18.00000 896.000
18.04000 825.000
18.08000 861.000
18.12000 890.000
18.16000 828.000
18.20000 934.000
18.24000 874.000
18.28000 890.000
18.32000 896.000
18.36000 866.000
18.40000 893.000
18.44000 883.000
18.48000 901.000
18.52000 896.000
18.56000 900.000
18.60000 935.000
18.64000 923.000
18.68000 907.000
18.72000 937.000
18.76000 940.000
18.80000 892.000
18.84000 959.000
18.88000 945.000
18.92000 948.000
18.96000 937.000
19.00000 971.000
19.04000 889.000
19.08000 976.000
19.12000 955.000
19.16000 946.000
19.20000 964.000
19.24000 970.000
19.28000 993.000
19.32000 952.000
19.36000 997.000
19.40000 1030.000
19.44000 1009.000
19.48000 1022.000
19.52000 1003.000
19.56000 1016.000
19.60000 1046.000
19.64000 1044.000
19.68000 945.000
19.72000 1054.000
19.76000 1048.000
19.80000 1038.000
19.84000 1041.000
19.88000 1021.000
19.92000 1035.000
19.96000 1024.000
20.00000 998.000
20.04000 1012.000
20.08000 1000.000
20.12000 1076.000
20.16000 1068.000
20.20000 1099.000
20.24000 1098.000
20.28000 1099.000
20.32000 1140.000
20.36000 1069.000
20.40000 1121.000
20.44000 1119.000
20.48000 1102.000
20.52000 1154.000
20.56000 1155.000
20.60000 1189.000
20.64000 1134.000
20.68000 1112.000
20.72000 1168.000
20.76000 1142.000
20.80000 1186.000
20.84000 1200.000
20.88000 1176.000
20.92000 1206.000
20.96000 1322.000
21.00000 1255.000
21.04000 1243.000
21.08000 1195.000
21.12000 1305.000
21.16000 1261.000
21.20000 1171.000
21.24000 1282.000
21.28000 1134.000
21.32000 1221.000
21.36000 1279.000
21.40000 1225.000
21.44000 1260.000
21.48000 1195.000
21.52000 1205.000
21.56000 1254.000
21.60000 1160.000
21.64000 1187.000
21.68000 1202.000
21.72000 1178.000
21.76000 1209.000
21.80000 1177.000
21.84000 1132.000
21.88000 1234.000
21.92000 1252.000
21.96000 1238.000
22.00000 1169.000
22.04000 1214.000
22.08000 1232.000
22.12000 1214.000
22.16000 1178.000
22.20000 1235.000
22.24000 1249.000
22.28000 1189.000
22.32000 1284.000
22.36000 1245.000
22.40000 1232.000
22.44000 1261.000
22.48000 1271.000
22.52000 1273.000
22.56000 1271.000
22.60000 1258.000
22.64000 1278.000
22.68000 1273.000
22.72000 1296.000
22.76000 1286.000
22.80000 1257.000
22.84000 1237.000
22.88000 1333.000
22.92000 1375.000
22.96000 1228.000
23.00000 1207.000
23.04000 1247.000
23.08000 1238.000
23.12000 1236.000
23.16000 1277.000
23.20000 1296.000
23.24000 1281.000
23.28000 1277.000
23.32000 1304.000
23.36000 1250.000
23.40000 1296.000
23.44000 1270.000
23.48000 1322.000
23.52000 1272.000
23.56000 1239.000
23.60000 1281.000
23.64000 1301.000
23.68000 1334.000
23.72000 1308.000
23.76000 1382.000
23.80000 1306.000
23.84000 1323.000
23.88000 1318.000
23.92000 1453.000
23.96000 1391.000
24.00000 1372.000
24.04000 1387.000
24.08000 1439.000
24.12000 1408.000
24.16000 1450.000
24.20000 1502.000
24.24000 1457.000
24.28000 1494.000
24.32000 1470.000
24.36000 1475.000
24.40000 1516.000
24.44000 1452.000
24.48000 1460.000
24.52000 1482.000
24.56000 1367.000
24.60000 1412.000
24.64000 1428.000
24.68000 1454.000
24.72000 1464.000
24.76000 1518.000
24.80000 1577.000
24.84000 1655.000
24.88000 1670.000
24.92000 1778.000
24.96000 1824.000
25.00000 1984.000
25.04000 2076.000
25.08000 2249.000
25.12000 2336.000
25.16000 2394.000
25.20000 2361.000
25.24000 2310.000
25.28000 2240.000
25.32000 2160.000
25.36000 2026.000
25.40000 1851.000
25.44000 1725.000
25.48000 1659.000
25.52000 1614.000
25.56000 1560.000
25.60000 1640.000
25.64000 1562.000
25.68000 1635.000
25.72000 1654.000
25.76000 1532.000
25.80000 1602.000
25.84000 1594.000
25.88000 1544.000
25.92000 1628.000
25.96000 1494.000
26.00000 1466.000
26.04000 1358.000
26.08000 1399.000
26.12000 1381.000
26.16000 1312.000
26.20000 1327.000
26.24000 1352.000
26.28000 1282.000
26.32000 1254.000
26.36000 1291.000
26.40000 1290.000
26.44000 1220.000
26.48000 1275.000
26.52000 1201.000
26.56000 1222.000
26.60000 1215.000
26.64000 1258.000
26.68000 1268.000
26.72000 1287.000
26.76000 1250.000
26.80000 1273.000
26.84000 1282.000
26.88000 1218.000
26.92000 1371.000
26.96000 1348.000
27.00000 1305.000
27.04000 1315.000
27.08000 1266.000
27.12000 1319.000
27.16000 1304.000
27.20000 1264.000
27.24000 1291.000
27.28000 1398.000
27.32000 1370.000
27.36000 1387.000
27.40000 1397.000
27.44000 1500.000
27.48000 1463.000
27.52000 1443.000
27.56000 1509.000
27.60000 1432.000
27.64000 1430.000
27.68000 1506.000
27.72000 1393.000
27.76000 1305.000
27.80000 1326.000
27.84000 1238.000
27.88000 1186.000
27.92000 1254.000
27.96000 1187.000
28.00000 1202.000
28.04000 1273.000
28.08000 1197.000
28.12000 1218.000
28.16000 1189.000
28.20000 1153.000
28.24000 1197.000
28.28000 1196.000
28.32000 1200.000
28.36000 1156.000
28.40000 1185.000
28.44000 1139.000
28.48000 1189.000
28.52000 1107.000
28.56000 1157.000
28.60000 1124.000
28.64000 1148.000
28.68000 1176.000
28.72000 1153.000
28.76000 1095.000
28.80000 1143.000
28.84000 1127.000
28.88000 1190.000
28.92000 1124.000
28.96000 1108.000
29.00000 1110.000
29.04000 1203.000
29.08000 1134.000
29.12000 1116.000
29.16000 1111.000
29.20000 1168.000
29.24000 1113.000
29.28000 1091.000
29.32000 1145.000
29.36000 1154.000
29.40000 1226.000
29.44000 1172.000
29.48000 1280.000
29.52000 1219.000
29.56000 1262.000
29.60000 1375.000
29.64000 1349.000
29.68000 1318.000
29.72000 1348.000
29.76000 1455.000
29.80000 1415.000
29.84000 1283.000
29.88000 1296.000
29.92000 1277.000
29.96000 1227.000
30.00000 1200.000
30.04000 1163.000
30.08000 1107.000
30.12000 1138.000
30.16000 1081.000
30.20000 1090.000
30.24000 1105.000
30.28000 1118.000
30.32000 1040.000
30.36000 1023.000
30.40000 1056.000
30.44000 1094.000
30.48000 993.000
30.52000 1041.000
30.56000 1044.000
30.60000 1063.000
30.64000 990.000
30.68000 1028.000
30.72000 1088.000
30.76000 1048.000
30.80000 1032.000
30.84000 1032.000
30.88000 984.000
30.92000 1015.000
30.96000 972.000
31.00000 1019.000
31.04000 1059.000
31.08000 973.000
31.12000 980.000
31.16000 968.000
31.20000 1006.000
31.24000 1000.000
31.28000 969.000
31.32000 998.000
31.36000 1001.000
31.40000 1004.000
31.44000 1002.000
31.48000 1045.000
31.52000 957.000
31.56000 1020.000
31.60000 980.000
31.64000 998.000
31.68000 952.000
31.72000 990.000
31.76000 993.000
31.80000 1017.000
31.84000 1055.000
31.88000 981.000
31.92000 979.000
31.96000 1015.000
32.00000 1031.000
32.04000 1091.000
32.08000 996.000
32.12000 1056.000
32.16000 1079.000
32.20000 1071.000
32.24000 1137.000
32.28000 1124.000
32.32000 1154.000
32.36000 1112.000
32.40000 1109.000
32.44000 1148.000
32.48000 1145.000
32.52000 1153.000
32.56000 1162.000
32.60000 1061.000
32.64000 1060.000
32.68000 1050.000
32.72000 996.000
32.76000 969.000
32.80000 978.000
32.84000 1034.000
32.88000 942.000
32.92000 1026.000
32.96000 970.000
33.00000 943.000
33.04000 1020.000
33.08000 938.000
33.12000 896.000
33.16000 971.000
33.20000 888.000
33.24000 948.000
33.28000 926.000
33.32000 891.000
33.36000 871.000
33.40000 838.000
33.44000 914.000
33.48000 793.000
33.52000 874.000
33.56000 864.000
33.60000 853.000
33.64000 847.000
33.68000 830.000
33.72000 833.000
33.76000 852.000
33.80000 820.000
33.84000 856.000
33.88000 831.000
33.92000 834.000
33.96000 803.000
34.00000 821.000
34.04000 805.000
34.08000 819.000
34.12000 795.000
34.16000 818.000
34.20000 818.000
34.24000 829.000
34.28000 740.000
34.32000 818.000
34.36000 805.000
34.40000 767.000
34.44000 775.000
34.48000 815.000
34.52000 817.000
34.56000 729.000
34.60000 752.000
34.64000 747.000
34.68000 729.000
34.72000 750.000
34.76000 807.000
34.80000 754.000
34.84000 757.000
34.88000 714.000
34.92000 765.000
34.96000 775.000
35.00000 693.000
35.04000 740.000
35.08000 674.000
35.12000 744.000
35.16000 681.000
35.20000 711.000
35.24000 700.000
35.28000 724.000
35.32000 711.000
35.36000 694.000
35.40000 722.000
35.44000 707.000
35.48000 737.000
35.52000 674.000
35.56000 696.000
35.60000 710.000
35.64000 661.000
35.68000 669.000
35.72000 683.000
35.76000 719.000
35.80000 674.000
35.84000 697.000
35.88000 657.000
35.92000 737.000
35.96000 658.000
36.00000 658.000
36.04000 665.000
36.08000 632.000
36.12000 682.000
36.16000 634.000
36.20000 726.000
36.24000 732.000
36.28000 668.000
36.32000 655.000
36.36000 643.000
36.40000 661.000
36.44000 705.000
36.48000 637.000
36.52000 659.000
36.56000 640.000
36.60000 650.000
36.64000 669.000
36.68000 656.000
36.72000 660.000
36.76000 618.000
36.80000 618.000
36.84000 594.000
36.88000 628.000
36.92000 648.000
36.96000 628.000
37.00000 664.000
37.04000 635.000
37.08000 653.000
37.12000 583.000
37.16000 602.000
37.20000 630.000
37.24000 646.000
37.28000 637.000
37.32000 608.000
37.36000 614.000
37.40000 610.000
37.44000 579.000
37.48000 598.000
37.52000 595.000
37.56000 539.000
37.60000 580.000
37.64000 574.000
37.68000 585.000
37.72000 601.000
37.76000 612.000
37.80000 564.000
37.84000 636.000
37.88000 578.000
37.92000 617.000
37.96000 598.000
38.00000 576.000
38.04000 616.000
38.08000 578.000
38.12000 576.000
38.16000 596.000
38.20000 618.000
38.24000 580.000
38.28000 630.000
38.32000 599.000
38.36000 581.000
38.40000 592.000
38.44000 594.000
38.48000 573.000
38.52000 558.000
38.56000 631.000
38.60000 583.000
38.64000 566.000
38.68000 602.000
38.72000 612.000
38.76000 636.000
38.80000 603.000
38.84000 636.000
38.88000 634.000
38.92000 602.000
38.96000 583.000
39.00000 605.000
39.04000 576.000
39.08000 620.000
39.12000 571.000
39.16000 624.000
39.20000 595.000
39.24000 584.000
39.28000 653.000
39.32000 592.000
39.36000 569.000
39.40000 589.000
39.44000 581.000
39.48000 551.000
39.52000 555.000
39.56000 593.000
39.60000 527.000
39.64000 542.000
39.68000 561.000
39.72000 555.000
39.76000 575.000
39.80000 529.000
39.84000 551.000
39.88000 585.000
39.92000 595.000
39.96000 554.000
40.00000 573.000
40.04000 532.000
40.08000 517.000
40.12000 575.000
40.16000 548.000
40.20000 552.000
40.24000 515.000
40.28000 614.000
40.32000 522.000
40.36000 583.000
40.40000 531.000
40.44000 543.000
40.48000 509.000
40.52000 549.000
40.56000 531.000
40.60000 559.000
40.64000 564.000
40.68000 579.000
40.72000 531.000
40.76000 562.000
40.80000 565.000
40.84000 552.000
40.88000 553.000
40.92000 579.000
40.96000 537.000
41.00000 549.000
41.04000 565.000
41.08000 578.000
41.12000 598.000
41.16000 570.000
41.20000 532.000
41.24000 568.000
41.28000 568.000
41.32000 573.000
41.36000 575.000
41.40000 549.000
41.44000 536.000
41.48000 533.000
41.52000 526.000
41.56000 573.000
41.60000 527.000
41.64000 587.000
41.68000 574.000
41.72000 556.000
41.76000 559.000
41.80000 534.000
41.84000 574.000
41.88000 601.000
41.92000 571.000
41.96000 602.000
42.00000 629.000
42.04000 606.000
42.08000 620.000
42.12000 626.000
42.16000 597.000
42.20000 591.000
42.24000 635.000
42.28000 616.000
42.32000 578.000
42.36000 574.000
42.40000 619.000
42.44000 577.000
42.48000 620.000
42.52000 558.000
42.56000 597.000
42.60000 600.000
42.64000 615.000
42.68000 613.000
42.72000 646.000
42.76000 649.000
42.80000 642.000
42.84000 637.000
42.88000 626.000
42.92000 671.000
42.96000 630.000
43.00000 639.000
43.04000 667.000
43.08000 635.000
43.12000 633.000
43.16000 609.000
43.20000 622.000
43.24000 591.000
43.28000 582.000
43.32000 567.000
43.36000 527.000
43.40000 571.000
43.44000 533.000
43.48000 525.000
43.52000 579.000
43.56000 524.000
43.60000 574.000
43.64000 531.000
43.68000 536.000
43.72000 537.000
43.76000 549.000
43.80000 536.000
43.84000 536.000
43.88000 549.000
43.92000 571.000
43.96000 544.000
44.00000 537.000
44.04000 533.000
44.08000 521.000
44.12000 550.000
44.16000 561.000
44.20000 486.000
44.24000 537.000
44.28000 519.000
44.32000 554.000
44.36000 538.000
44.40000 527.000
44.44000 568.000
44.48000 515.000
44.52000 543.000
44.56000 533.000
44.60000 529.000
44.64000 524.000
44.68000 493.000
44.72000 506.000
44.76000 485.000
44.80000 559.000
44.84000 526.000
44.88000 539.000
44.92000 550.000
44.96000 484.000
45.00000 517.000
45.04000 498.000
45.08000 574.000
45.12000 553.000
45.16000 515.000
45.20000 508.000
45.24000 511.000
45.28000 525.000
45.32000 522.000
45.36000 559.000
45.40000 544.000
45.44000 512.000
45.48000 564.000
45.52000 513.000
45.56000 553.000
45.60000 549.000
45.64000 522.000
45.68000 596.000
45.72000 580.000
45.76000 572.000
45.80000 547.000
45.84000 589.000
45.88000 590.000
45.92000 601.000
45.96000 591.000
46.00000 530.000
46.04000 604.000
46.08000 530.000
46.12000 560.000
46.16000 537.000
46.20000 547.000
46.24000 555.000
46.28000 518.000
46.32000 509.000
46.36000 500.000
46.40000 497.000
46.44000 512.000
46.48000 502.000
46.52000 520.000
46.56000 515.000
46.60000 475.000
46.64000 503.000
46.68000 486.000
46.72000 474.000
46.76000 516.000
46.80000 450.000
46.84000 474.000
46.88000 455.000
46.92000 537.000
46.96000 477.000
47.00000 526.000
47.04000 472.000
47.08000 478.000
47.12000 520.000
47.16000 522.000
47.20000 446.000
47.24000 450.000
47.28000 505.000
47.32000 480.000
47.36000 515.000
47.40000 478.000
47.44000 497.000
47.48000 542.000
47.52000 486.000
47.56000 489.000
47.60000 487.000
47.64000 475.000
47.68000 501.000
47.72000 455.000
47.76000 471.000
47.80000 479.000
47.84000 493.000
47.88000 464.000
47.92000 506.000
47.96000 485.000
48.00000 517.000
48.04000 492.000
48.08000 469.000
48.12000 493.000
48.16000 527.000
48.20000 489.000
48.24000 525.000
48.28000 460.000
48.32000 473.000
48.36000 478.000
48.40000 491.000
48.44000 507.000
48.48000 468.000
48.52000 466.000
48.56000 437.000
48.60000 468.000
48.64000 498.000
48.68000 483.000
48.72000 491.000
48.76000 473.000
48.80000 461.000
48.84000 497.000
48.88000 474.000
48.92000 468.000
48.96000 471.000
49.00000 478.000
49.04000 480.000
49.08000 486.000
49.12000 507.000
49.16000 482.000
49.20000 477.000
49.24000 442.000
49.28000 511.000
49.32000 479.000
49.36000 470.000
49.40000 465.000
49.44000 466.000
49.48000 478.000
49.52000 479.000
49.56000 456.000
49.60000 453.000
49.64000 472.000
49.68000 508.000
49.72000 471.000
49.76000 500.000
49.80000 451.000
49.84000 469.000
49.88000 481.000
49.92000 450.000
49.96000 505.000
50.00000 461.000
50.04000 487.000
50.08000 464.000
50.12000 490.000
50.16000 500.000
50.20000 481.000
50.24000 488.000
50.28000 478.000
50.32000 470.000
50.36000 492.000
50.40000 452.000
50.44000 505.000
50.48000 525.000
50.52000 521.000
50.56000 435.000
50.60000 478.000
50.64000 459.000
50.68000 482.000
50.72000 450.000
50.76000 519.000
50.80000 473.000
50.84000 455.000
50.88000 460.000
50.92000 450.000
50.96000 470.000
51.00000 468.000
51.04000 448.000
51.08000 467.000
51.12000 474.000
51.16000 483.000
51.20000 474.000
51.24000 458.000
51.28000 464.000
51.32000 502.000
51.36000 420.000
51.40000 468.000
51.44000 476.000
51.48000 531.000
51.52000 494.000
51.56000 482.000
51.60000 496.000
51.64000 545.000
51.68000 516.000
51.72000 600.000
51.76000 557.000
51.80000 554.000
51.84000 534.000
51.88000 527.000
51.92000 555.000
51.96000 536.000
52.00000 523.000
52.04000 496.000
52.08000 517.000
52.12000 470.000
52.16000 478.000
52.20000 456.000
52.24000 449.000
52.28000 453.000
52.32000 429.000
52.36000 426.000
52.40000 441.000
52.44000 441.000
52.48000 447.000
52.52000 446.000
52.56000 459.000
52.60000 416.000
52.64000 480.000
52.68000 418.000
52.72000 432.000
52.76000 464.000
52.80000 431.000
52.84000 437.000
52.88000 450.000
52.92000 477.000
52.96000 467.000
53.00000 432.000
53.04000 459.000
53.08000 446.000
53.12000 457.000
53.16000 453.000
53.20000 448.000
53.24000 475.000
53.28000 504.000
53.32000 433.000
53.36000 412.000
53.40000 428.000
53.44000 427.000
53.48000 444.000
53.52000 463.000
53.56000 431.000
53.60000 429.000
53.64000 436.000
53.68000 433.000
53.72000 444.000
53.76000 448.000
53.80000 429.000
53.84000 446.000
53.88000 449.000
53.92000 455.000
53.96000 404.000
54.00000 433.000
54.04000 407.000
54.08000 443.000
54.12000 432.000
54.16000 453.000
54.20000 451.000
54.24000 453.000
54.28000 459.000
54.32000 414.000
54.36000 460.000
54.40000 414.000
54.44000 464.000
54.48000 461.000
54.52000 485.000
54.56000 424.000
54.60000 437.000
54.64000 478.000
54.68000 385.000
54.72000 424.000
54.76000 465.000
54.80000 434.000
54.84000 470.000
54.88000 452.000
54.92000 472.000
54.96000 429.000
55.00000 468.000
55.04000 483.000
55.08000 437.000
55.12000 447.000
55.16000 422.000
55.20000 420.000
55.24000 481.000
55.28000 413.000
55.32000 427.000
55.36000 438.000
55.40000 429.000
55.44000 443.000
55.48000 472.000
55.52000 412.000
55.56000 446.000
55.60000 439.000
55.64000 389.000
55.68000 445.000
55.72000 466.000
55.76000 427.000
55.80000 416.000
55.84000 436.000
55.88000 425.000
55.92000 453.000
55.96000 418.000
56.00000 423.000
56.04000 440.000
56.08000 480.000
56.12000 453.000
56.16000 467.000
56.20000 438.000
56.24000 411.000
56.28000 438.000
56.32000 430.000
56.36000 460.000
56.40000 418.000
56.44000 423.000
56.48000 437.000
56.52000 426.000
56.56000 432.000
56.60000 446.000
56.64000 416.000
56.68000 418.000
56.72000 414.000
56.76000 435.000
56.80000 434.000
56.84000 440.000
56.88000 427.000
56.92000 408.000
56.96000 475.000
57.00000 451.000
57.04000 433.000
57.08000 472.000
57.12000 442.000
57.16000 440.000
57.20000 422.000
57.24000 417.000
57.28000 453.000
57.32000 462.000
57.36000 442.000
57.40000 405.000
57.44000 424.000
57.48000 424.000
57.52000 451.000
57.56000 451.000
57.60000 468.000
57.64000 458.000
57.68000 465.000
57.72000 459.000
57.76000 427.000
57.80000 446.000
57.84000 446.000
57.88000 443.000
57.92000 439.000
57.96000 466.000
58.00000 445.000
58.04000 447.000
58.08000 452.000
58.12000 458.000
58.16000 417.000
58.20000 449.000
58.24000 483.000
58.28000 397.000
58.32000 454.000
58.36000 444.000
58.40000 449.000
58.44000 465.000
58.48000 467.000
58.52000 439.000
58.56000 427.000
58.60000 443.000
58.64000 462.000
58.68000 407.000
58.72000 423.000
58.76000 423.000
58.80000 434.000
58.84000 424.000
58.88000 415.000
58.92000 464.000
58.96000 423.000
59.00000 468.000
59.04000 415.000
59.08000 478.000
59.12000 442.000
59.16000 430.000
59.20000 442.000
59.24000 435.000
59.28000 449.000
59.32000 417.000
59.36000 406.000
59.40000 466.000
59.44000 452.000
59.48000 455.000
59.52000 450.000
59.56000 426.000
59.60000 413.000
59.64000 413.000
59.68000 456.000
59.72000 436.000
59.76000 393.000
59.80000 432.000
59.84000 454.000
59.88000 438.000
59.92000 452.000