File: XRD/36.xy
5.00000 1457.000
5.04000 1420.000
5.08000 1379.000
5.12000 1336.000
5.16000 1305.000
5.20000 1384.000
5.24000 1364.000
5.28000 1347.000
5.32000 1398.000
5.36000 1315.000
5.40000 1267.000
5.44000 1291.000
5.48000 1315.000
5.52000 1315.000
5.56000 1318.000
5.60000 1254.000
5.64000 1325.000
5.68000 1243.000
5.72000 1183.000
5.76000 1157.000
5.80000 1172.000
5.84000 1224.000
5.88000 1243.000
5.92000 1227.000
5.96000 1143.000
6.00000 1171.000
6.04000 1164.000
6.08000 1129.000
6.12000 1160.000
6.16000 1160.000
6.20000 1117.000
6.24000 1134.000
6.28000 1112.000
6.32000 1075.000
6.36000 1093.000
6.40000 1129.000
6.44000 1068.000
6.48000 1076.000
6.52000 1035.000
6.56000 1065.000
6.60000 1066.000
6.64000 1023.000
6.68000 1032.000
6.72000 1016.000
6.76000 1036.000
6.80000 1007.000
6.84000 1012.000
6.88000 1008.000
6.92000 1064.000
6.96000 1039.000
7.00000 967.000
7.04000 982.000
7.08000 943.000
7.12000 1052.000
7.16000 1027.000
7.20000 1024.000
7.24000 952.000
7.28000 975.000
7.32000 898.000
7.36000 901.000
7.40000 912.000
7.44000 1006.000
7.48000 957.000
7.52000 936.000
7.56000 876.000
7.60000 922.000
7.64000 929.000
7.68000 919.000
7.72000 920.000
7.76000 901.000
7.80000 982.000
7.84000 938.000
7.88000 953.000
7.92000 923.000
7.96000 1025.000
8.00000 942.000
8.04000 917.000
8.08000 965.000
8.12000 931.000
8.16000 1038.000
8.20000 968.000
8.24000 1013.000
8.28000 1058.000
8.32000 1073.000
8.36000 1155.000
8.40000 1240.000
8.44000 1266.000
8.48000 1197.000
8.52000 1100.000
8.56000 959.000
8.60000 905.000
8.64000 898.000
8.68000 869.000
8.72000 845.000
8.76000 846.000
8.80000 825.000
8.84000 822.000
8.88000 788.000
8.92000 786.000
8.96000 812.000
9.00000 742.000
9.04000 804.000
9.08000 820.000
9.12000 761.000
9.16000 784.000
9.20000 822.000
9.24000 823.000
9.28000 754.000
9.32000 730.000
9.36000 747.000
9.40000 758.000
9.44000 784.000
9.48000 722.000
9.52000 760.000
9.56000 713.000
9.60000 754.000
9.64000 787.000
9.68000 730.000
9.72000 752.000
9.76000 768.000
9.80000 727.000
9.84000 744.000
9.88000 748.000
9.92000 683.000
9.96000 720.000
10.00000 758.000
10.04000 694.000
10.08000 737.000
10.12000 714.000
10.16000 698.000
10.20000 698.000
10.24000 718.000
10.28000 686.000
10.32000 692.000
10.36000 743.000
10.40000 676.000
10.44000 658.000
10.48000 753.000
10.52000 693.000
10.56000 665.000
10.60000 679.000
10.64000 753.000
10.68000 669.000
10.72000 692.000
10.76000 711.000
10.80000 730.000
10.84000 691.000
10.88000 679.000
10.92000 621.000
10.96000 671.000
11.00000 654.000
11.04000 638.000
11.08000 706.000
11.12000 653.000
11.16000 622.000
11.20000 661.000
11.24000 666.000
11.28000 723.000
11.32000 651.000
11.36000 699.000
11.40000 705.000
11.44000 673.000
11.48000 687.000
11.52000 724.000
11.56000 703.000
11.60000 682.000
11.64000 711.000
11.68000 700.000
11.72000 665.000
11.76000 720.000
11.80000 702.000
11.84000 700.000
11.88000 712.000
11.92000 757.000
11.96000 757.000
12.00000 706.000
12.04000 784.000
12.08000 823.000
12.12000 907.000
12.16000 895.000
12.20000 1005.000
12.24000 893.000
12.28000 879.000
12.32000 843.000
12.36000 788.000
12.40000 730.000
12.44000 755.000
12.48000 712.000
12.52000 717.000
12.56000 774.000
12.60000 822.000
12.64000 805.000
12.68000 844.000
12.72000 917.000
12.76000 1057.000
12.80000 1156.000
12.84000 1200.000
12.88000 1311.000
12.92000 1375.000
12.96000 1369.000
13.00000 1142.000
13.04000 1003.000
13.08000 865.000
13.12000 796.000
13.16000 700.000
13.20000 687.000
13.24000 643.000
13.28000 637.000
13.32000 662.000
13.36000 649.000
13.40000 657.000
13.44000 635.000
13.48000 609.000
13.52000 654.000
13.56000 650.000
13.60000 669.000
13.64000 649.000
13.68000 612.000
13.72000 611.000
13.76000 661.000
13.80000 627.000
13.84000 590.000
13.88000 638.000
13.92000 581.000
13.96000 537.000
14.00000 631.000
14.04000 693.000
14.08000 676.000
14.12000 650.000
14.16000 602.000
14.20000 663.000
14.24000 612.000
14.28000 605.000
14.32000 630.000
14.36000 604.000
14.40000 629.000
14.44000 636.000
14.48000 627.000
14.52000 615.000
14.56000 587.000
14.60000 653.000
14.64000 635.000
14.68000 617.000
14.72000 654.000
14.76000 667.000
14.80000 625.000
14.84000 664.000
14.88000 659.000
14.92000 675.000
14.96000 626.000
15.00000 674.000
15.04000 626.000
15.08000 630.000
15.12000 649.000
15.16000 602.000
15.20000 601.000
15.24000 635.000
15.28000 578.000
15.32000 603.000
15.36000 643.000
15.40000 651.000
15.44000 623.000
15.48000 649.000
15.52000 614.000
15.56000 635.000
15.60000 638.000
15.64000 638.000
15.68000 679.000
15.72000 690.000
15.76000 620.000
15.80000 623.000
15.84000 612.000
15.88000 648.000
15.92000 654.000
15.96000 618.000
16.00000 624.000
16.04000 649.000
16.08000 684.000
16.12000 678.000
16.16000 671.000
16.20000 640.000
16.24000 628.000
16.28000 706.000
16.32000 641.000
16.36000 706.000
16.40000 675.000
16.44000 659.000
16.48000 671.000
16.52000 663.000
16.56000 707.000
16.60000 757.000
16.64000 712.000
16.68000 759.000
16.72000 761.000
16.76000 814.000
16.80000 843.000
16.84000 892.000
16.88000 997.000
16.92000 1078.000
16.96000 987.000
17.00000 932.000
17.04000 841.000
17.08000 768.000
17.12000 754.000
17.16000 714.000
17.20000 746.000
17.24000 687.000
17.28000 709.000
17.32000 700.000
17.36000 728.000
17.40000 699.000
17.44000 749.000
17.48000 730.000
17.52000 737.000
17.56000 720.000
17.60000 748.000
17.64000 699.000
17.68000 777.000
17.72000 794.000
17.76000 785.000
17.80000 744.000
17.84000 781.000
17.88000 739.000
17.92000 732.000
17.96000 727.000
18.00000 734.000
18.04000 717.000
18.08000 783.000
18.12000 755.000
18.16000 774.000
18.20000 747.000
18.24000 781.000
18.28000 786.000
18.32000 839.000
18.36000 807.000
18.40000 758.000
18.44000 776.000
18.48000 764.000
18.52000 793.000
18.56000 741.000
18.60000 842.000
18.64000 787.000
18.68000 757.000
18.72000 792.000
18.76000 774.000
18.80000 752.000
18.84000 805.000
18.88000 819.000
18.92000 781.000
18.96000 786.000
19.00000 768.000
19.04000 820.000
19.08000 791.000
19.12000 838.000
19.16000 767.000
19.20000 825.000
19.24000 833.000
19.28000 825.000
19.32000 878.000
19.36000 833.000
19.40000 816.000
19.44000 814.000
19.48000 893.000
19.52000 793.000
19.56000 831.000
19.60000 832.000
19.64000 866.000
19.68000 828.000
19.72000 820.000
19.76000 879.000
19.80000 891.000
19.84000 889.000
19.88000 940.000
19.92000 934.000
19.96000 911.000
20.00000 852.000
20.04000 901.000
20.08000 872.000
20.12000 878.000
20.16000 868.000
20.20000 888.000
20.24000 892.000
20.28000 949.000
20.32000 897.000
20.36000 903.000
20.40000 938.000
20.44000 906.000
20.48000 939.000
20.52000 927.000
20.56000 900.000
20.60000 1000.000
20.64000 952.000
20.68000 952.000
20.72000 1014.000
20.76000 970.000
20.80000 983.000
20.84000 1045.000
20.88000 1010.000
20.92000 1061.000
20.96000 1072.000
21.00000 1039.000
21.04000 1042.000
21.08000 1076.000
21.12000 1114.000
21.16000 1119.000
21.20000 1116.000
21.24000 1151.000
21.28000 1095.000
21.32000 1028.000
21.36000 1141.000
21.40000 1073.000
21.44000 1005.000
21.48000 1076.000
21.52000 988.000
21.56000 995.000
21.60000 1020.000
21.64000 1062.000
21.68000 979.000
21.72000 1045.000
21.76000 1050.000
21.80000 989.000
21.84000 1016.000
21.88000 1045.000
21.92000 1034.000
21.96000 1022.000
22.00000 1035.000
22.04000 1088.000
22.08000 1104.000
22.12000 1120.000
22.16000 1091.000
22.20000 1091.000
22.24000 1063.000
22.28000 1088.000
22.32000 1085.000
22.36000 1029.000
22.40000 1034.000
22.44000 1003.000
22.48000 1045.000
22.52000 1082.000
22.56000 1083.000
22.60000 1077.000
22.64000 1112.000
22.68000 1060.000
22.72000 1072.000
22.76000 1104.000
22.80000 1066.000
22.84000 1047.000
22.88000 1183.000
22.92000 1082.000
22.96000 1108.000
23.00000 1136.000
23.04000 1238.000
23.08000 1090.000
23.12000 1114.000
23.16000 1059.000
23.20000 1100.000
23.24000 1161.000
23.28000 1123.000
23.32000 1128.000
23.36000 1111.000
23.40000 1156.000
23.44000 1110.000
23.48000 1065.000
23.52000 1066.000
23.56000 1100.000
23.60000 1138.000
23.64000 1158.000
23.68000 1141.000
23.72000 1104.000
23.76000 1164.000
23.80000 1126.000
23.84000 1091.000
23.88000 1120.000
23.92000 1156.000
23.96000 1099.000
24.00000 1122.000
24.04000 1112.000
24.08000 1152.000
24.12000 1150.000
24.16000 1105.000
24.20000 1175.000
24.24000 1144.000
24.28000 1262.000
24.32000 1267.000
24.36000 1233.000
24.40000 1292.000
24.44000 1381.000
24.48000 1321.000
24.52000 1415.000
24.56000 1366.000
24.60000 1424.000
24.64000 1375.000
24.68000 1370.000
24.72000 1375.000
24.76000 1442.000
24.80000 1399.000
24.84000 1450.000
24.88000 1497.000
24.92000 1543.000
24.96000 1534.000
25.00000 1562.000
25.04000 1623.000
25.08000 1633.000
25.12000 1646.000
25.16000 1875.000
25.20000 2014.000
25.24000 2411.000
25.28000 2816.000
25.32000 3328.000
25.36000 4275.000
25.40000 5287.000
25.44000 6554.000
25.48000 7993.000
25.52000 8826.000
25.56000 8312.000
25.60000 7029.000
25.64000 5352.000
25.68000 4042.000
25.72000 3399.000
25.76000 2820.000
25.80000 2674.000
25.84000 2617.000
25.88000 2626.000
25.92000 2840.000
25.96000 3170.000
26.00000 3223.000
26.04000 3238.000
26.08000 3051.000
26.12000 2797.000
26.16000 2520.000
26.20000 2179.000
26.24000 1930.000
26.28000 1649.000
26.32000 1488.000
26.36000 1449.000
26.40000 1366.000
26.44000 1315.000
26.48000 1288.000
26.52000 1344.000
26.56000 1229.000
26.60000 1204.000
26.64000 1168.000
26.68000 1129.000
26.72000 1180.000
26.76000 1168.000
26.80000 1183.000
26.84000 1165.000
26.88000 1199.000
26.92000 1181.000
26.96000 1145.000
27.00000 1227.000
27.04000 1169.000
27.08000 1189.000
27.12000 1203.000
27.16000 1237.000
27.20000 1276.000
27.24000 1287.000
27.28000 1363.000
27.32000 1413.000
27.36000 1479.000
27.40000 1579.000
27.44000 1697.000
27.48000 1927.000
27.52000 2095.000
27.56000 2281.000
27.60000 2503.000
27.64000 2656.000
27.68000 2762.000
27.72000 2696.000
27.76000 2544.000
27.80000 2415.000
27.84000 2179.000
27.88000 2037.000
27.92000 1684.000
27.96000 1611.000
28.00000 1465.000
28.04000 1424.000
28.08000 1266.000
28.12000 1273.000
28.16000 1177.000
28.20000 1131.000
28.24000 1145.000
28.28000 1134.000
28.32000 1146.000
28.36000 1136.000
28.40000 1135.000
28.44000 1165.000
28.48000 1082.000
28.52000 1063.000
28.56000 1062.000
28.60000 1073.000
28.64000 1045.000
28.68000 996.000
28.72000 1048.000
28.76000 1004.000
28.80000 1054.000
28.84000 1078.000
28.88000 1011.000
28.92000 996.000
28.96000 1018.000
29.00000 1043.000
29.04000 1077.000
29.08000 1109.000
29.12000 1019.000
29.16000 1029.000
29.20000 1048.000
29.24000 979.000
29.28000 962.000
29.32000 1040.000
29.36000 1008.000
29.40000 971.000
29.44000 1025.000
29.48000 1052.000
29.52000 1072.000
29.56000 1073.000
29.60000 1130.000
29.64000 1196.000
29.68000 1126.000
29.72000 1294.000
29.76000 1387.000
29.80000 1460.000
29.84000 1522.000
29.88000 1642.000
29.92000 1749.000
29.96000 1699.000
30.00000 1814.000
30.04000 1814.000
30.08000 1697.000
30.12000 1560.000
30.16000 1480.000
30.20000 1319.000
30.24000 1199.000
30.28000 1179.000
30.32000 1075.000
30.36000 1041.000
30.40000 1049.000
30.44000 989.000
30.48000 1022.000
30.52000 979.000
30.56000 1026.000
30.60000 922.000
30.64000 1001.000
30.68000 917.000
30.72000 969.000
30.76000 977.000
30.80000 884.000
30.84000 938.000
30.88000 893.000
30.92000 907.000
30.96000 943.000
31.00000 946.000
31.04000 942.000
31.08000 929.000
31.12000 873.000
31.16000 912.000
31.20000 871.000
31.24000 898.000
31.28000 905.000
31.32000 842.000
31.36000 878.000
31.40000 865.000
31.44000 889.000
31.48000 841.000
31.52000 891.000
31.56000 885.000
31.60000 914.000
31.64000 923.000
31.68000 891.000
31.72000 847.000
31.76000 889.000
31.80000 899.000
31.84000 851.000
31.88000 889.000
31.92000 828.000
31.96000 840.000
32.00000 884.000
32.04000 809.000
32.08000 881.000
32.12000 912.000
32.16000 909.000
32.20000 980.000
32.24000 884.000
32.28000 937.000
32.32000 1007.000
32.36000 977.000
32.40000 996.000
32.44000 1048.000
32.48000 1059.000
32.52000 1119.000
32.56000 1126.000
32.60000 1237.000
32.64000 1224.000
32.68000 1178.000
32.72000 1290.000
32.76000 1168.000
32.80000 1103.000
32.84000 1086.000
32.88000 1065.000
32.92000 1018.000
32.96000 1023.000
33.00000 938.000
33.04000 942.000
33.08000 957.000
33.12000 873.000
33.16000 861.000
33.20000 873.000
33.24000 892.000
33.28000 818.000
33.32000 799.000
33.36000 833.000
33.40000 871.000
33.44000 802.000
33.48000 836.000
33.52000 806.000
33.56000 808.000
33.60000 786.000
33.64000 727.000
33.68000 762.000
33.72000 781.000
33.76000 790.000
33.80000 768.000
33.84000 741.000
33.88000 784.000
33.92000 728.000
33.96000 731.000
34.00000 815.000
34.04000 721.000
34.08000 723.000
34.12000 790.000
34.16000 783.000
34.20000 702.000
34.24000 703.000
34.28000 698.000
34.32000 686.000
34.36000 721.000
34.40000 668.000
34.44000 655.000
34.48000 685.000
34.52000 694.000
34.56000 713.000
34.60000 720.000
34.64000 671.000
34.68000 688.000
34.72000 647.000
34.76000 674.000
34.80000 645.000
34.84000 652.000
34.88000 676.000
34.92000 679.000
34.96000 680.000
35.00000 639.000
35.04000 655.000
35.08000 659.000
35.12000 634.000
35.16000 693.000
35.20000 634.000
35.24000 628.000
35.28000 657.000
35.32000 643.000
35.36000 641.000
35.40000 662.000
35.44000 692.000
35.48000 645.000
35.52000 702.000
35.56000 652.000
35.60000 660.000
35.64000 634.000
35.68000 634.000
35.72000 642.000
35.76000 585.000
35.80000 627.000
35.84000 633.000
35.88000 635.000
35.92000 574.000
35.96000 611.000
36.00000 589.000
36.04000 633.000
36.08000 599.000
36.12000 591.000
36.16000 643.000
36.20000 638.000
36.24000 585.000
36.28000 607.000
36.32000 635.000
36.36000 622.000
36.40000 614.000
36.44000 601.000
36.48000 585.000
36.52000 600.000
36.56000 577.000
36.60000 566.000
36.64000 530.000
36.68000 574.000
36.72000 579.000
36.76000 581.000
36.80000 577.000
36.84000 546.000
36.88000 603.000
36.92000 577.000
36.96000 591.000
37.00000 580.000
37.04000 578.000
37.08000 558.000
37.12000 580.000
37.16000 595.000
37.20000 577.000
37.24000 554.000
37.28000 578.000
37.32000 565.000
37.36000 543.000
37.40000 583.000
37.44000 593.000
37.48000 553.000
37.52000 532.000
37.56000 518.000
37.60000 556.000
37.64000 552.000
37.68000 574.000
37.72000 537.000
37.76000 535.000
37.80000 516.000
37.84000 508.000
37.88000 534.000
37.92000 530.000
37.96000 511.000
38.00000 551.000
38.04000 538.000
38.08000 500.000
38.12000 539.000
38.16000 519.000
38.20000 578.000
38.24000 518.000
38.28000 521.000
38.32000 515.000
38.36000 521.000
38.40000 524.000
38.44000 497.000
38.48000 497.000
38.52000 537.000
38.56000 540.000
38.60000 514.000
38.64000 507.000
38.68000 539.000
38.72000 535.000
38.76000 567.000
38.80000 550.000
38.84000 604.000
38.88000 574.000
38.92000 600.000
38.96000 614.000
39.00000 594.000
39.04000 594.000
39.08000 560.000
39.12000 608.000
39.16000 580.000
39.20000 626.000
39.24000 587.000
39.28000 564.000
39.32000 633.000
39.36000 585.000
39.40000 573.000
39.44000 589.000
39.48000 627.000
39.52000 563.000
39.56000 572.000
39.60000 565.000
39.64000 538.000
39.68000 517.000
39.72000 509.000
39.76000 505.000
39.80000 547.000
39.84000 518.000
39.88000 514.000
39.92000 522.000
39.96000 500.000
40.00000 469.000
40.04000 537.000
40.08000 512.000
40.12000 485.000
40.16000 494.000
40.20000 513.000
40.24000 482.000
40.28000 509.000
40.32000 511.000
40.36000 491.000
40.40000 482.000
40.44000 501.000
40.48000 491.000
40.52000 504.000
40.56000 516.000
40.60000 535.000
40.64000 519.000
40.68000 522.000
40.72000 525.000
40.76000 513.000
40.80000 517.000
40.84000 512.000
40.88000 525.000
40.92000 555.000
40.96000 508.000
41.00000 523.000
41.04000 512.000
41.08000 538.000
41.12000 537.000
41.16000 510.000
41.20000 538.000
41.24000 537.000
41.28000 497.000
41.32000 510.000
41.36000 493.000
41.40000 506.000
41.44000 516.000
41.48000 498.000
41.52000 522.000
41.56000 506.000
41.60000 543.000
41.64000 505.000
41.68000 521.000
41.72000 491.000
41.76000 504.000
41.80000 495.000
41.84000 502.000
41.88000 495.000
41.92000 522.000
41.96000 497.000
42.00000 489.000
42.04000 529.000
42.08000 539.000
42.12000 511.000
42.16000 572.000
42.20000 511.000
42.24000 507.000
42.28000 540.000
42.32000 584.000
42.36000 574.000
42.40000 580.000
42.44000 574.000
42.48000 615.000
42.52000 685.000
42.56000 651.000
42.60000 661.000
42.64000 654.000
42.68000 674.000
42.72000 634.000
42.76000 608.000
42.80000 585.000
42.84000 664.000
42.88000 604.000
42.92000 589.000
42.96000 621.000
43.00000 665.000
43.04000 677.000
43.08000 713.000
43.12000 751.000
43.16000 855.000
43.20000 858.000
43.24000 939.000
43.28000 864.000
43.32000 840.000
43.36000 794.000
43.40000 794.000
43.44000 747.000
43.48000 692.000
43.52000 645.000
43.56000 641.000
43.60000 570.000
43.64000 574.000
43.68000 562.000
43.72000 566.000
43.76000 470.000
43.80000 536.000
43.84000 480.000
43.88000 538.000
43.92000 533.000
43.96000 482.000
44.00000 480.000
44.04000 534.000
44.08000 513.000
44.12000 500.000
44.16000 584.000
44.20000 516.000
44.24000 532.000
44.28000 461.000
44.32000 484.000
44.36000 494.000
44.40000 534.000
44.44000 522.000
44.48000 501.000
44.52000 501.000
44.56000 538.000
44.60000 514.000
44.64000 509.000
44.68000 504.000
44.72000 495.000
44.76000 535.000
44.80000 523.000
44.84000 506.000
44.88000 537.000
44.92000 522.000
44.96000 480.000
45.00000 529.000
45.04000 517.000
45.08000 506.000
45.12000 499.000
45.16000 513.000
45.20000 509.000
45.24000 546.000
45.28000 513.000
45.32000 546.000
45.36000 491.000
45.40000 500.000
45.44000 514.000
45.48000 513.000
45.52000 501.000
45.56000 469.000
45.60000 525.000
45.64000 517.000
45.68000 504.000
45.72000 497.000
45.76000 453.000
45.80000 498.000
45.84000 526.000
45.88000 523.000
45.92000 523.000
45.96000 522.000
46.00000 559.000
46.04000 567.000
46.08000 540.000
46.12000 523.000
46.16000 615.000
46.20000 609.000
46.24000 638.000
46.28000 599.000
46.32000 610.000
46.36000 654.000
46.40000 613.000
46.44000 600.000
46.48000 591.000
46.52000 571.000
46.56000 594.000
46.60000 541.000
46.64000 574.000
46.68000 560.000
46.72000 511.000
46.76000 523.000
46.80000 520.000
46.84000 520.000
46.88000 485.000
46.92000 520.000
46.96000 497.000
47.00000 466.000
47.04000 476.000
47.08000 486.000
47.12000 517.000
47.16000 463.000
47.20000 475.000
47.24000 486.000
47.28000 454.000
47.32000 487.000
47.36000 472.000
47.40000 487.000
47.44000 462.000
47.48000 445.000
47.52000 473.000
47.56000 474.000
47.60000 469.000
47.64000 472.000
47.68000 446.000
47.72000 444.000
47.76000 475.000
47.80000 449.000
47.84000 500.000
47.88000 469.000
47.92000 514.000
47.96000 481.000
48.00000 474.000
48.04000 478.000
48.08000 463.000
48.12000 482.000
48.16000 448.000
48.20000 419.000
48.24000 507.000
48.28000 459.000
48.32000 478.000
48.36000 477.000
48.40000 453.000
48.44000 443.000
48.48000 466.000
48.52000 482.000
48.56000 481.000
48.60000 492.000
48.64000 456.000
48.68000 521.000
48.72000 490.000
48.76000 460.000
48.80000 498.000
48.84000 488.000
48.88000 492.000
48.92000 457.000
48.96000 440.000
49.00000 464.000
49.04000 493.000
49.08000 495.000
49.12000 452.000
49.16000 450.000
49.20000 468.000
49.24000 481.000
49.28000 450.000
49.32000 430.000
49.36000 442.000
49.40000 451.000
49.44000 456.000
49.48000 464.000
49.52000 443.000
49.56000 426.000
49.60000 435.000
49.64000 450.000
49.68000 479.000
49.72000 455.000
49.76000 510.000
49.80000 492.000
49.84000 466.000
49.88000 443.000
49.92000 434.000
49.96000 457.000
50.00000 429.000
50.04000 471.000
50.08000 482.000
50.12000 514.000
50.16000 511.000
50.20000 469.000
50.24000 497.000
50.28000 504.000
50.32000 497.000
50.36000 526.000
50.40000 499.000
50.44000 514.000
50.48000 526.000
50.52000 522.000
50.56000 506.000
50.60000 547.000
50.64000 508.000
50.68000 521.000
50.72000 570.000
50.76000 523.000
50.80000 578.000
50.84000 576.000
50.88000 603.000
50.92000 597.000
50.96000 618.000
51.00000 640.000
51.04000 527.000
51.08000 591.000
51.12000 580.000
51.16000 577.000
51.20000 508.000
51.24000 578.000
51.28000 537.000
51.32000 568.000
51.36000 488.000
51.40000 526.000
51.44000 493.000
51.48000 489.000
51.52000 510.000
51.56000 475.000
51.60000 477.000
51.64000 447.000
51.68000 487.000
51.72000 463.000
51.76000 477.000
51.80000 526.000
51.84000 483.000
51.88000 514.000
51.92000 489.000
51.96000 508.000
52.00000 539.000
52.04000 516.000
52.08000 605.000
52.12000 656.000
52.16000 644.000
52.20000 682.000
52.24000 729.000
52.28000 803.000
52.32000 955.000
52.36000 929.000
52.40000 1104.000
52.44000 1181.000
52.48000 1014.000
52.52000 954.000
52.56000 965.000
52.60000 855.000
52.64000 741.000
52.68000 634.000
52.72000 658.000
52.76000 540.000
52.80000 531.000
52.84000 563.000
52.88000 510.000
52.92000 478.000
52.96000 447.000
53.00000 488.000
53.04000 463.000
53.08000 478.000
53.12000 441.000
53.16000 491.000
53.20000 472.000
53.24000 483.000
53.28000 491.000
53.32000 492.000
53.36000 527.000
53.40000 460.000
53.44000 510.000
53.48000 510.000
53.52000 502.000
53.56000 514.000
53.60000 529.000
53.64000 496.000
53.68000 557.000
53.72000 474.000
53.76000 518.000
53.80000 516.000
53.84000 482.000
53.88000 479.000
53.92000 433.000
53.96000 485.000
54.00000 434.000
54.04000 466.000
54.08000 430.000
54.12000 449.000
54.16000 443.000
54.20000 452.000
54.24000 435.000
54.28000 471.000
54.32000 475.000
54.36000 469.000
54.40000 404.000
54.44000 431.000
54.48000 432.000
54.52000 420.000
54.56000 446.000
54.60000 462.000
54.64000 456.000
54.68000 409.000
54.72000 432.000
54.76000 457.000
54.80000 471.000
54.84000 445.000
54.88000 452.000
54.92000 460.000
54.96000 428.000
55.00000 433.000
55.04000 489.000
55.08000 494.000
55.12000 474.000
55.16000 467.000
55.20000 503.000
55.24000 440.000
55.28000 472.000
55.32000 481.000
55.36000 507.000
55.40000 487.000
55.44000 454.000
55.48000 447.000
55.52000 456.000
55.56000 471.000
55.60000 481.000
55.64000 426.000
55.68000 478.000
55.72000 443.000
55.76000 397.000
55.80000 439.000
55.84000 382.000
55.88000 420.000
55.92000 439.000
55.96000 459.000
56.00000 427.000
56.04000 433.000
56.08000 441.000
56.12000 431.000
56.16000 417.000
56.20000 423.000
56.24000 421.000
56.28000 427.000
56.32000 398.000
56.36000 426.000
56.40000 443.000
56.44000 395.000
56.48000 392.000
56.52000 452.000
56.56000 456.000
56.60000 462.000
56.64000 402.000
56.68000 416.000
56.72000 443.000
56.76000 402.000
56.80000 444.000
56.84000 399.000
56.88000 449.000
56.92000 405.000
56.96000 380.000
57.00000 477.000
57.04000 465.000
57.08000 474.000
57.12000 468.000
57.16000 448.000
57.20000 446.000
57.24000 437.000
57.28000 431.000
57.32000 434.000
57.36000 421.000
57.40000 469.000
57.44000 444.000
57.48000 400.000
57.52000 399.000
57.56000 415.000
57.60000 418.000
57.64000 431.000
57.68000 424.000
57.72000 449.000
57.76000 425.000
57.80000 431.000
57.84000 432.000
57.88000 422.000
57.92000 421.000
57.96000 389.000
58.00000 440.000
58.04000 421.000
58.08000 426.000
58.12000 448.000
58.16000 424.000
58.20000 393.000
58.24000 441.000
58.28000 379.000
58.32000 448.000
58.36000 446.000
58.40000 375.000
58.44000 403.000
58.48000 421.000
58.52000 426.000
58.56000 467.000
58.60000 438.000
58.64000 441.000
58.68000 402.000
58.72000 437.000
58.76000 437.000
58.80000 463.000
58.84000 435.000
58.88000 412.000
58.92000 441.000
58.96000 421.000
59.00000 418.000
59.04000 407.000
59.08000 426.000
59.12000 441.000
59.16000 435.000
59.20000 394.000
59.24000 443.000
59.28000 428.000
59.32000 418.000
59.36000 437.000
59.40000 415.000
59.44000 409.000
59.48000 430.000
59.52000 420.000
59.56000 416.000
59.60000 433.000
59.64000 443.000
59.68000 424.000
59.72000 408.000
59.76000 428.000
59.80000 377.000
59.84000 460.000
59.88000 436.000
59.92000 414.000