File: XRD/38.xy
5.00000 2780.000
5.04000 2698.000
5.08000 2756.000
5.12000 2661.000
5.16000 2699.000
5.20000 2672.000
5.24000 2579.000
5.28000 2653.000
5.32000 2535.000
5.36000 2602.000
5.40000 2612.000
5.44000 2608.000
5.48000 2577.000
5.52000 2547.000
5.56000 2435.000
5.60000 2451.000
5.64000 2371.000
5.68000 2420.000
5.72000 2496.000
5.76000 2454.000
5.80000 2465.000
5.84000 2373.000
5.88000 2316.000
5.92000 2313.000
5.96000 2198.000
6.00000 2337.000
6.04000 2188.000
6.08000 2194.000
6.12000 2297.000
6.16000 2256.000
6.20000 2214.000
6.24000 2295.000
6.28000 2181.000
6.32000 2253.000
6.36000 2205.000
6.40000 2190.000
6.44000 2072.000
6.48000 2102.000
6.52000 2179.000
6.56000 2117.000
6.60000 2131.000
6.64000 2108.000
6.68000 2074.000
6.72000 2073.000
6.76000 2064.000
6.80000 2016.000
6.84000 1983.000
6.88000 2010.000
6.92000 1997.000
6.96000 1906.000
7.00000 1994.000
7.04000 1979.000
7.08000 1980.000
7.12000 1972.000
7.16000 1973.000
7.20000 2003.000
7.24000 1918.000
7.28000 1915.000
7.32000 1878.000
7.36000 1843.000
7.40000 1881.000
7.44000 1883.000
7.48000 1829.000
7.52000 1780.000
7.56000 1804.000
7.60000 1809.000
7.64000 1770.000
7.68000 1874.000
7.72000 1810.000
7.76000 1820.000
7.80000 1810.000
7.84000 1777.000
7.88000 1859.000
7.92000 1866.000
7.96000 1839.000
8.00000 1855.000
8.04000 1940.000
8.08000 2185.000
8.12000 2413.000
8.16000 2608.000
8.20000 2807.000
8.24000 3033.000
8.28000 3201.000
8.32000 3214.000
8.36000 3108.000
8.40000 2980.000
8.44000 2609.000
8.48000 2333.000
8.52000 2196.000
8.56000 1913.000
8.60000 1707.000
8.64000 1713.000
8.68000 1658.000
8.72000 1659.000
8.76000 1638.000
8.80000 1624.000
8.84000 1673.000
8.88000 1597.000
8.92000 1588.000
8.96000 1606.000
9.00000 1653.000
9.04000 1682.000
9.08000 1695.000
9.12000 1647.000
9.16000 1735.000
9.20000 1603.000
9.24000 1662.000
9.28000 1634.000
9.32000 1573.000
9.36000 1652.000
9.40000 1648.000
9.44000 1584.000
9.48000 1656.000
9.52000 1528.000
9.56000 1579.000
9.60000 1583.000
9.64000 1658.000
9.68000 1541.000
9.72000 1587.000
9.76000 1536.000
9.80000 1462.000
9.84000 1513.000
9.88000 1579.000
9.92000 1561.000
9.96000 1592.000
10.00000 1573.000
10.04000 1592.000
10.08000 1562.000
10.12000 1598.000
10.16000 1608.000
10.20000 1645.000
10.24000 1642.000
10.28000 1571.000
10.32000 1556.000
10.36000 1579.000
10.40000 1530.000
10.44000 1488.000
10.48000 1547.000
10.52000 1511.000
10.56000 1481.000
10.60000 1487.000
10.64000 1438.000
10.68000 1404.000
10.72000 1376.000
10.76000 1360.000
10.80000 1389.000
10.84000 1299.000
10.88000 1392.000
10.92000 1313.000
10.96000 1354.000
11.00000 1325.000
11.04000 1425.000
11.08000 1418.000
11.12000 1350.000
11.16000 1312.000
11.20000 1427.000
11.24000 1312.000
11.28000 1337.000
11.32000 1300.000
11.36000 1375.000
11.40000 1353.000
11.44000 1271.000
11.48000 1319.000
11.52000 1254.000
11.56000 1339.000
11.60000 1309.000
11.64000 1372.000
11.68000 1348.000
11.72000 1499.000
11.76000 1440.000
11.80000 1611.000
11.84000 1607.000
11.88000 1648.000
11.92000 1651.000
11.96000 1762.000
12.00000 1728.000
12.04000 1889.000
12.08000 1854.000
12.12000 1837.000
12.16000 1749.000
12.20000 1708.000
12.24000 1713.000
12.28000 1672.000
12.32000 1645.000
12.36000 1634.000
12.40000 1657.000
12.44000 1613.000
12.48000 1635.000
12.52000 1666.000
12.56000 1776.000
12.60000 1850.000
12.64000 1917.000
12.68000 1983.000
12.72000 1991.000
12.76000 1980.000
12.80000 1996.000
12.84000 1932.000
12.88000 1864.000
12.92000 1916.000
12.96000 1945.000
13.00000 1933.000
13.04000 1948.000
13.08000 1916.000
13.12000 1919.000
13.16000 1936.000
13.20000 1874.000
13.24000 1837.000
13.28000 1783.000
13.32000 1632.000
13.36000 1583.000
13.40000 1515.000
13.44000 1491.000
13.48000 1431.000
13.52000 1386.000
13.56000 1390.000
13.60000 1389.000
13.64000 1426.000
13.68000 1469.000
13.72000 1476.000
13.76000 1573.000
13.80000 1650.000
13.84000 1778.000
13.88000 1819.000
13.92000 1942.000
13.96000 1851.000
14.00000 1892.000
14.04000 1831.000
14.08000 1698.000
14.12000 1693.000
14.16000 1502.000
14.20000 1463.000
14.24000 1427.000
14.28000 1367.000
14.32000 1325.000
14.36000 1294.000
14.40000 1303.000
14.44000 1282.000
14.48000 1273.000
14.52000 1200.000
14.56000 1231.000
14.60000 1215.000
14.64000 1271.000
14.68000 1222.000
14.72000 1191.000
14.76000 1178.000
14.80000 1216.000
14.84000 1239.000
14.88000 1164.000
14.92000 1275.000
14.96000 1246.000
15.00000 1231.000
15.04000 1278.000
15.08000 1286.000
15.12000 1224.000
15.16000 1269.000
15.20000 1308.000
15.24000 1244.000
15.28000 1250.000
15.32000 1257.000
15.36000 1201.000
15.40000 1247.000
15.44000 1242.000
15.48000 1255.000
15.52000 1218.000
15.56000 1211.000
15.60000 1195.000
15.64000 1199.000
15.68000 1174.000
15.72000 1222.000
15.76000 1214.000
15.80000 1149.000
15.84000 1298.000
15.88000 1201.000
15.92000 1284.000
15.96000 1230.000
16.00000 1209.000
16.04000 1284.000
16.08000 1310.000
16.12000 1281.000
16.16000 1269.000
16.20000 1297.000
16.24000 1335.000
16.28000 1336.000
16.32000 1381.000
16.36000 1433.000
16.40000 1517.000
16.44000 1695.000
16.48000 1897.000
16.52000 2462.000
16.56000 2974.000
16.60000 3437.000
16.64000 4053.000
16.68000 4417.000
16.72000 4584.000
16.76000 4720.000
16.80000 4294.000
16.84000 3758.000
16.88000 3214.000
16.92000 2726.000
16.96000 2170.000
17.00000 1830.000
17.04000 1530.000
17.08000 1492.000
17.12000 1343.000
17.16000 1381.000
17.20000 1348.000
17.24000 1308.000
17.28000 1321.000
17.32000 1330.000
17.36000 1311.000
17.40000 1306.000
17.44000 1323.000
17.48000 1330.000
17.52000 1294.000
17.56000 1346.000
17.60000 1293.000
17.64000 1301.000
17.68000 1364.000
17.72000 1359.000
17.76000 1412.000
17.80000 1387.000
17.84000 1407.000
17.88000 1355.000
17.92000 1358.000
17.96000 1355.000
18.00000 1320.000
18.04000 1341.000
18.08000 1316.000
18.12000 1301.000
18.16000 1343.000
18.20000 1404.000
18.24000 1380.000
18.28000 1361.000
18.32000 1390.000
18.36000 1409.000
18.40000 1415.000
18.44000 1428.000
18.48000 1479.000
18.52000 1340.000
18.56000 1401.000
18.60000 1381.000
18.64000 1438.000
18.68000 1360.000
18.72000 1355.000
18.76000 1407.000
18.80000 1410.000
18.84000 1421.000
18.88000 1466.000
18.92000 1431.000
18.96000 1416.000
19.00000 1489.000
19.04000 1482.000
19.08000 1449.000
19.12000 1472.000
19.16000 1472.000
19.20000 1466.000
19.24000 1475.000
19.28000 1514.000
19.32000 1538.000
19.36000 1498.000
19.40000 1492.000
19.44000 1551.000
19.48000 1541.000
19.52000 1479.000
19.56000 1542.000
19.60000 1472.000
19.64000 1448.000
19.68000 1442.000
19.72000 1529.000
19.76000 1491.000
19.80000 1465.000
19.84000 1512.000
19.88000 1592.000
19.92000 1523.000
19.96000 1480.000
20.00000 1563.000
20.04000 1563.000
20.08000 1618.000
20.12000 1527.000
20.16000 1492.000
20.20000 1643.000
20.24000 1536.000
20.28000 1562.000
20.32000 1609.000
20.36000 1604.000
20.40000 1616.000
20.44000 1619.000
20.48000 1610.000
20.52000 1609.000
20.56000 1606.000
20.60000 1675.000
20.64000 1666.000
20.68000 1669.000
20.72000 1654.000
20.76000 1669.000
20.80000 1696.000
20.84000 1671.000
20.88000 1616.000
20.92000 1640.000
20.96000 1721.000
21.00000 1815.000
21.04000 1649.000
21.08000 1685.000
21.12000 1761.000
21.16000 1737.000
21.20000 1790.000
21.24000 1825.000
21.28000 1691.000
21.32000 1810.000
21.36000 1758.000
21.40000 1810.000
21.44000 1815.000
21.48000 1671.000
21.52000 1743.000
21.56000 1751.000
21.60000 1804.000
21.64000 1775.000
21.68000 1736.000
21.72000 1790.000
21.76000 1748.000
21.80000 1773.000
21.84000 1748.000
21.88000 1760.000
21.92000 1747.000
21.96000 1743.000
22.00000 1743.000
22.04000 1749.000
22.08000 1751.000
22.12000 1775.000
22.16000 1828.000
22.20000 1845.000
22.24000 1790.000
22.28000 1809.000
22.32000 1725.000
22.36000 1788.000
22.40000 1760.000
22.44000 1791.000
22.48000 1864.000
22.52000 1850.000
22.56000 1811.000
22.60000 1839.000
22.64000 1811.000
22.68000 1797.000
22.72000 1873.000
22.76000 1832.000
22.80000 1786.000
22.84000 1807.000
22.88000 1967.000
22.92000 1812.000
22.96000 1799.000
23.00000 1885.000
23.04000 1834.000
23.08000 1852.000
23.12000 1859.000
23.16000 1871.000
23.20000 1982.000
23.24000 1959.000
23.28000 2024.000
23.32000 1986.000
23.36000 2123.000
23.40000 2127.000
23.44000 2100.000
23.48000 2158.000
23.52000 2136.000
23.56000 2090.000
23.60000 2087.000
23.64000 2019.000
23.68000 2007.000
23.72000 1955.000
23.76000 1901.000
23.80000 2015.000
23.84000 1953.000
23.88000 1983.000
23.92000 2114.000
23.96000 2021.000
24.00000 2071.000
24.04000 2025.000
24.08000 2010.000
24.12000 2109.000
24.16000 1993.000
24.20000 1933.000
24.24000 1943.000
24.28000 1968.000
24.32000 1937.000
24.36000 1980.000
24.40000 1892.000
24.44000 2069.000
24.48000 2014.000
24.52000 2046.000
24.56000 2076.000
24.60000 2106.000
24.64000 2149.000
24.68000 2242.000
24.72000 2270.000
24.76000 2404.000
24.80000 2421.000
24.84000 2609.000
24.88000 2859.000
24.92000 3074.000
24.96000 3564.000
25.00000 4460.000
25.04000 5739.000
25.08000 7584.000
25.12000 9582.000
25.16000 11288.000
25.20000 12676.000
25.24000 13381.000
25.28000 13416.000
25.32000 12834.000
25.36000 11547.000
25.40000 9466.000
25.44000 7847.000
25.48000 6297.000
25.52000 4848.000
25.56000 4064.000
25.60000 3397.000
25.64000 3094.000
25.68000 2944.000
25.72000 2733.000
25.76000 2509.000
25.80000 2434.000
25.84000 2310.000
25.88000 2143.000
25.92000 2153.000
25.96000 2088.000
26.00000 1871.000
26.04000 1932.000
26.08000 1850.000
26.12000 1903.000
26.16000 1905.000
26.20000 1877.000
26.24000 1973.000
26.28000 1996.000
26.32000 1931.000
26.36000 1932.000
26.40000 1998.000
26.44000 1873.000
26.48000 1924.000
26.52000 1847.000
26.56000 1853.000
26.60000 1831.000
26.64000 1799.000
26.68000 1852.000
26.72000 1849.000
26.76000 1778.000
26.80000 1828.000
26.84000 1796.000
26.88000 1815.000
26.92000 1771.000
26.96000 1867.000
27.00000 1808.000
27.04000 1835.000
27.08000 1822.000
27.12000 1810.000
27.16000 1813.000
27.20000 1862.000
27.24000 1847.000
27.28000 1833.000
27.32000 1817.000
27.36000 1771.000
27.40000 1898.000
27.44000 1726.000
27.48000 1844.000
27.52000 1788.000
27.56000 1718.000
27.60000 1800.000
27.64000 1712.000
27.68000 1701.000
27.72000 1654.000
27.76000 1740.000
27.80000 1704.000
27.84000 1766.000
27.88000 1791.000
27.92000 1814.000
27.96000 1819.000
28.00000 1940.000
28.04000 1929.000
28.08000 1961.000
28.12000 2048.000
28.16000 2132.000
28.20000 2207.000
28.24000 2048.000
28.28000 2172.000
28.32000 2005.000
28.36000 2005.000
28.40000 1995.000
28.44000 1870.000
28.48000 1945.000
28.52000 1812.000
28.56000 1853.000
28.60000 1944.000
28.64000 1836.000
28.68000 1745.000
28.72000 1830.000
28.76000 1809.000
28.80000 1663.000
28.84000 1777.000
28.88000 1744.000
28.92000 1726.000
28.96000 1753.000
29.00000 1771.000
29.04000 1651.000
29.08000 1698.000
29.12000 1707.000
29.16000 1698.000
29.20000 1671.000
29.24000 1697.000
29.28000 1731.000
29.32000 1648.000
29.36000 1652.000
29.40000 1705.000
29.44000 1616.000
29.48000 1614.000
29.52000 1581.000
29.56000 1624.000
29.60000 1594.000
29.64000 1555.000
29.68000 1584.000
29.72000 1512.000
29.76000 1568.000
29.80000 1480.000
29.84000 1457.000
29.88000 1497.000
29.92000 1545.000
29.96000 1561.000
30.00000 1470.000
30.04000 1450.000
30.08000 1497.000
30.12000 1468.000
30.16000 1468.000
30.20000 1501.000
30.24000 1526.000
30.28000 1500.000
30.32000 1510.000
30.36000 1501.000
30.40000 1524.000
30.44000 1518.000
30.48000 1553.000
30.52000 1587.000
30.56000 1591.000
30.60000 1544.000
30.64000 1537.000
30.68000 1502.000
30.72000 1508.000
30.76000 1449.000
30.80000 1538.000
30.84000 1503.000
30.88000 1474.000
30.92000 1489.000
30.96000 1442.000
31.00000 1524.000
31.04000 1485.000
31.08000 1493.000
31.12000 1491.000
31.16000 1531.000
31.20000 1458.000
31.24000 1468.000
31.28000 1425.000
31.32000 1551.000
31.36000 1439.000
31.40000 1456.000
31.44000 1452.000
31.48000 1469.000
31.52000 1434.000
31.56000 1479.000
31.60000 1377.000
31.64000 1401.000
31.68000 1438.000
31.72000 1393.000
31.76000 1385.000
31.80000 1441.000
31.84000 1435.000
31.88000 1444.000
31.92000 1418.000
31.96000 1400.000
32.00000 1362.000
32.04000 1390.000
32.08000 1394.000
32.12000 1346.000
32.16000 1374.000
32.20000 1376.000
32.24000 1350.000
32.28000 1326.000
32.32000 1389.000
32.36000 1371.000
32.40000 1341.000
32.44000 1486.000
32.48000 1351.000
32.52000 1396.000
32.56000 1373.000
32.60000 1444.000
32.64000 1398.000
32.68000 1436.000
32.72000 1484.000
32.76000 1471.000
32.80000 1607.000
32.84000 1569.000
32.88000 1617.000
32.92000 1754.000
32.96000 1919.000
33.00000 1995.000
33.04000 2037.000
33.08000 2156.000
33.12000 2013.000
33.16000 2024.000
33.20000 2056.000
33.24000 1866.000
33.28000 1970.000
33.32000 1651.000
33.36000 1713.000
33.40000 1579.000
33.44000 1477.000
33.48000 1397.000
33.52000 1422.000
33.56000 1354.000
33.60000 1311.000
33.64000 1281.000
33.68000 1297.000
33.72000 1203.000
33.76000 1232.000
33.80000 1208.000
33.84000 1252.000
33.88000 1215.000
33.92000 1152.000
33.96000 1213.000
34.00000 1181.000
34.04000 1145.000
34.08000 1179.000
34.12000 1153.000
34.16000 1130.000
34.20000 1172.000
34.24000 1111.000
34.28000 1105.000
34.32000 1099.000
34.36000 1105.000
34.40000 1082.000
34.44000 1036.000
34.48000 1108.000
34.52000 1124.000
34.56000 1081.000
34.60000 1095.000
34.64000 1066.000
34.68000 1067.000
34.72000 1114.000
34.76000 994.000
34.80000 1055.000
34.84000 1067.000
34.88000 1061.000
34.92000 1019.000
34.96000 1007.000
35.00000 1016.000
35.04000 1062.000
35.08000 1018.000
35.12000 1008.000
35.16000 1006.000
35.20000 993.000
35.24000 1037.000
35.28000 976.000
35.32000 1027.000
35.36000 1011.000
35.40000 931.000
35.44000 922.000
35.48000 938.000
35.52000 919.000
35.56000 945.000
35.60000 959.000
35.64000 990.000
35.68000 968.000
35.72000 918.000
35.76000 976.000
35.80000 967.000
35.84000 977.000
35.88000 932.000
35.92000 923.000
35.96000 937.000
36.00000 926.000
36.04000 886.000
36.08000 912.000
36.12000 918.000
36.16000 929.000
36.20000 954.000
36.24000 965.000
36.28000 950.000
36.32000 969.000
36.36000 932.000
36.40000 925.000
36.44000 986.000
36.48000 925.000
36.52000 961.000
36.56000 949.000
36.60000 940.000
36.64000 894.000
36.68000 852.000
36.72000 837.000
36.76000 937.000
36.80000 885.000
36.84000 915.000
36.88000 879.000
36.92000 899.000
36.96000 888.000
37.00000 848.000
37.04000 843.000
37.08000 925.000
37.12000 855.000
37.16000 884.000
37.20000 848.000
37.24000 903.000
37.28000 883.000
37.32000 882.000
37.36000 909.000
37.40000 936.000
37.44000 947.000
37.48000 971.000
37.52000 939.000
37.56000 986.000
37.60000 997.000
37.64000 1011.000
37.68000 1032.000
37.72000 1180.000
37.76000 1228.000
37.80000 1375.000
37.84000 1454.000
37.88000 1514.000
37.92000 1676.000
37.96000 1636.000
38.00000 1690.000
38.04000 1758.000
38.08000 1671.000
38.12000 1610.000
38.16000 1530.000
38.20000 1417.000
38.24000 1361.000
38.28000 1238.000
38.32000 1161.000
38.36000 1061.000
38.40000 1032.000
38.44000 979.000
38.48000 869.000
38.52000 911.000
38.56000 904.000
38.60000 831.000
38.64000 848.000
38.68000 818.000
38.72000 846.000
38.76000 856.000
38.80000 831.000
38.84000 812.000
38.88000 771.000
38.92000 733.000
38.96000 778.000
39.00000 803.000
39.04000 796.000
39.08000 813.000
39.12000 797.000
39.16000 775.000
39.20000 740.000
39.24000 751.000
39.28000 825.000
39.32000 759.000
39.36000 825.000
39.40000 723.000
39.44000 770.000
39.48000 829.000
39.52000 844.000
39.56000 788.000
39.60000 738.000
39.64000 790.000
39.68000 758.000
39.72000 790.000
39.76000 799.000
39.80000 794.000
39.84000 802.000
39.88000 759.000
39.92000 777.000
39.96000 750.000
40.00000 805.000
40.04000 831.000
40.08000 747.000
40.12000 800.000
40.16000 807.000
40.20000 763.000
40.24000 778.000
40.28000 775.000
40.32000 773.000
40.36000 742.000
40.40000 750.000
40.44000 791.000
40.48000 801.000
40.52000 766.000
40.56000 745.000
40.60000 799.000
40.64000 813.000
40.68000 765.000
40.72000 777.000
40.76000 827.000
40.80000 775.000
40.84000 805.000
40.88000 822.000
40.92000 755.000
40.96000 778.000
41.00000 759.000
41.04000 758.000
41.08000 728.000
41.12000 764.000
41.16000 743.000
41.20000 736.000
41.24000 760.000
41.28000 813.000
41.32000 735.000
41.36000 730.000
41.40000 713.000
41.44000 800.000
41.48000 741.000
41.52000 791.000
41.56000 727.000
41.60000 767.000
41.64000 742.000
41.68000 760.000
41.72000 768.000
41.76000 799.000
41.80000 733.000
41.84000 817.000
41.88000 723.000
41.92000 825.000
41.96000 775.000
42.00000 749.000
42.04000 817.000
42.08000 759.000
42.12000 771.000
42.16000 752.000
42.20000 827.000
42.24000 763.000
42.28000 770.000
42.32000 796.000
42.36000 816.000
42.40000 815.000
42.44000 842.000
42.48000 838.000
42.52000 833.000
42.56000 935.000
42.60000 937.000
42.64000 973.000
42.68000 1142.000
42.72000 1225.000
42.76000 1241.000
42.80000 1196.000
42.84000 1257.000
42.88000 1208.000
42.92000 1126.000
42.96000 1048.000
43.00000 1068.000
43.04000 1008.000
43.08000 930.000
43.12000 884.000
43.16000 858.000
43.20000 827.000
43.24000 868.000
43.28000 859.000
43.32000 801.000
43.36000 809.000
43.40000 812.000
43.44000 833.000
43.48000 843.000
43.52000 809.000
43.56000 846.000
43.60000 789.000
43.64000 831.000
43.68000 732.000
43.72000 803.000
43.76000 819.000
43.80000 789.000
43.84000 764.000
43.88000 807.000
43.92000 755.000
43.96000 768.000
44.00000 790.000
44.04000 736.000
44.08000 721.000
44.12000 775.000
44.16000 818.000
44.20000 739.000
44.24000 764.000
44.28000 774.000
44.32000 755.000
44.36000 739.000
44.40000 728.000
44.44000 696.000
44.48000 720.000
44.52000 763.000
44.56000 736.000
44.60000 756.000
44.64000 741.000
44.68000 732.000
44.72000 751.000
44.76000 772.000
44.80000 726.000
44.84000 675.000
44.88000 775.000
44.92000 720.000
44.96000 753.000
45.00000 769.000
45.04000 778.000
45.08000 742.000
45.12000 726.000
45.16000 729.000
45.20000 783.000
45.24000 771.000
45.28000 721.000
45.32000 674.000
45.36000 768.000
45.40000 708.000
45.44000 724.000
45.48000 760.000
45.52000 744.000
45.56000 696.000
45.60000 672.000
45.64000 724.000
45.68000 767.000
45.72000 722.000
45.76000 735.000
45.80000 723.000
45.84000 693.000
45.88000 692.000
45.92000 734.000
45.96000 685.000
46.00000 735.000
46.04000 716.000
46.08000 684.000
46.12000 673.000
46.16000 650.000
46.20000 674.000
46.24000 680.000
46.28000 631.000
46.32000 696.000
46.36000 753.000
46.40000 707.000
46.44000 693.000
46.48000 714.000
46.52000 650.000
46.56000 675.000
46.60000 661.000
46.64000 683.000
46.68000 650.000
46.72000 726.000
46.76000 698.000
46.80000 720.000
46.84000 723.000
46.88000 654.000
46.92000 664.000
46.96000 661.000
47.00000 686.000
47.04000 674.000
47.08000 654.000
47.12000 687.000
47.16000 660.000
47.20000 694.000
47.24000 694.000
47.28000 630.000
47.32000 683.000
47.36000 666.000
47.40000 645.000
47.44000 669.000
47.48000 704.000
47.52000 644.000
47.56000 633.000
47.60000 663.000
47.64000 642.000
47.68000 677.000
47.72000 673.000
47.76000 680.000
47.80000 653.000
47.84000 627.000
47.88000 630.000
47.92000 667.000
47.96000 667.000
48.00000 750.000
48.04000 696.000
48.08000 679.000
48.12000 639.000
48.16000 688.000
48.20000 671.000
48.24000 635.000
48.28000 652.000
48.32000 722.000
48.36000 661.000
48.40000 652.000
48.44000 682.000
48.48000 651.000
48.52000 638.000
48.56000 711.000
48.60000 625.000
48.64000 679.000
48.68000 611.000
48.72000 627.000
48.76000 623.000
48.80000 633.000
48.84000 623.000
48.88000 648.000
48.92000 611.000
48.96000 642.000
49.00000 719.000
49.04000 599.000
49.08000 627.000
49.12000 647.000
49.16000 616.000
49.20000 638.000
49.24000 616.000
49.28000 690.000
49.32000 590.000
49.36000 680.000
49.40000 629.000
49.44000 602.000
49.48000 633.000
49.52000 605.000
49.56000 632.000
49.60000 642.000
49.64000 669.000
49.68000 591.000
49.72000 629.000
49.76000 626.000
49.80000 647.000
49.84000 633.000
49.88000 618.000
49.92000 646.000
49.96000 633.000
50.00000 620.000
50.04000 618.000
50.08000 645.000
50.12000 629.000
50.16000 634.000
50.20000 682.000
50.24000 643.000
50.28000 615.000
50.32000 640.000
50.36000 634.000
50.40000 594.000
50.44000 619.000
50.48000 640.000
50.52000 586.000
50.56000 627.000
50.60000 658.000
50.64000 630.000
50.68000 587.000
50.72000 627.000
50.76000 609.000
50.80000 661.000
50.84000 646.000
50.88000 630.000
50.92000 616.000
50.96000 640.000
51.00000 608.000
51.04000 670.000
51.08000 588.000
51.12000 634.000
51.16000 681.000
51.20000 628.000
51.24000 621.000
51.28000 663.000
51.32000 622.000
51.36000 629.000
51.40000 648.000
51.44000 677.000
51.48000 626.000
51.52000 634.000
51.56000 699.000
51.60000 717.000
51.64000 756.000
51.68000 790.000
51.72000 857.000
51.76000 898.000
51.80000 1011.000
51.84000 1003.000
51.88000 1116.000
51.92000 1148.000
51.96000 1196.000
52.00000 1142.000
52.04000 1120.000
52.08000 1090.000
52.12000 1056.000
52.16000 1030.000
52.20000 994.000
52.24000 827.000
52.28000 757.000
52.32000 720.000
52.36000 741.000
52.40000 711.000
52.44000 654.000
52.48000 643.000
52.52000 640.000
52.56000 624.000
52.60000 667.000
52.64000 657.000
52.68000 650.000
52.72000 575.000
52.76000 659.000
52.80000 644.000
52.84000 638.000
52.88000 666.000
52.92000 681.000
52.96000 653.000
53.00000 675.000
53.04000 678.000
53.08000 686.000
53.12000 683.000
53.16000 673.000
53.20000 771.000
53.24000 672.000
53.28000 648.000
53.32000 669.000
53.36000 758.000
53.40000 695.000
53.44000 639.000
53.48000 654.000
53.52000 650.000
53.56000 682.000
53.60000 661.000
53.64000 630.000
53.68000 616.000
53.72000 606.000
53.76000 627.000
53.80000 609.000
53.84000 671.000
53.88000 612.000
53.92000 605.000
53.96000 598.000
54.00000 625.000
54.04000 577.000
54.08000 587.000
54.12000 587.000
54.16000 616.000
54.20000 617.000
54.24000 624.000
54.28000 646.000
54.32000 642.000
54.36000 663.000
54.40000 626.000
54.44000 646.000
54.48000 617.000
54.52000 601.000
54.56000 616.000
54.60000 635.000
54.64000 620.000
54.68000 623.000
54.72000 638.000
54.76000 588.000
54.80000 609.000
54.84000 594.000
54.88000 616.000
54.92000 601.000
54.96000 620.000
55.00000 634.000
55.04000 599.000
55.08000 592.000
55.12000 621.000
55.16000 626.000
55.20000 587.000
55.24000 631.000
55.28000 599.000
55.32000 620.000
55.36000 616.000
55.40000 638.000
55.44000 610.000
55.48000 570.000
55.52000 590.000
55.56000 625.000
55.60000 607.000
55.64000 671.000
55.68000 606.000
55.72000 598.000
55.76000 549.000
55.80000 625.000
55.84000 655.000
55.88000 581.000
55.92000 566.000
55.96000 616.000
56.00000 593.000
56.04000 622.000
56.08000 644.000
56.12000 614.000
56.16000 551.000
56.20000 625.000
56.24000 596.000
56.28000 598.000
56.32000 606.000
56.36000 632.000
56.40000 603.000
56.44000 587.000
56.48000 622.000
56.52000 595.000
56.56000 591.000
56.60000 607.000
56.64000 601.000
56.68000 543.000
56.72000 576.000
56.76000 617.000
56.80000 615.000
56.84000 592.000
56.88000 633.000
56.92000 606.000
56.96000 617.000
57.00000 607.000
57.04000 612.000
57.08000 591.000
57.12000 605.000
57.16000 649.000
57.20000 583.000
57.24000 596.000
57.28000 653.000
57.32000 571.000
57.36000 612.000
57.40000 611.000
57.44000 599.000
57.48000 562.000
57.52000 580.000
57.56000 599.000
57.60000 605.000
57.64000 645.000
57.68000 600.000
57.72000 613.000
57.76000 638.000
57.80000 613.000
57.84000 624.000
57.88000 634.000
57.92000 600.000
57.96000 600.000
58.00000 604.000
58.04000 599.000
58.08000 630.000
58.12000 601.000
58.16000 561.000
58.20000 639.000
58.24000 568.000
58.28000 609.000
58.32000 582.000
58.36000 658.000
58.40000 633.000
58.44000 600.000
58.48000 637.000
58.52000 639.000
58.56000 633.000
58.60000 587.000
58.64000 609.000
58.68000 598.000
58.72000 609.000
58.76000 587.000
58.80000 620.000
58.84000 611.000
58.88000 573.000
58.92000 599.000
58.96000 600.000
59.00000 613.000
59.04000 622.000
59.08000 625.000
59.12000 548.000
59.16000 580.000
59.20000 583.000
59.24000 594.000
59.28000 630.000
59.32000 600.000
59.36000 564.000
59.40000 607.000
59.44000 590.000
59.48000 595.000
59.52000 621.000
59.56000 611.000
59.60000 637.000
59.64000 583.000
59.68000 622.000
59.72000 592.000
59.76000 598.000
59.80000 550.000
59.84000 590.000
59.88000 572.000
59.92000 550.000