File: XRD/39.xy
5.00000 4161.000
5.08000 4022.000
5.16000 3781.000
5.24000 3702.000
5.32000 3628.000
5.40000 3410.000
5.48000 3392.000
5.56000 3350.000
5.64000 3113.000
5.72000 3004.000
5.80000 3025.000
5.88000 2855.000
5.96000 2755.000
6.04000 2739.000
6.12000 2563.000
6.20000 2476.000
6.28000 2475.000
6.36000 2415.000
6.44000 2322.000
6.52000 2276.000
6.60000 2158.000
6.68000 2048.000
6.76000 2108.000
6.84000 1898.000
6.92000 1881.000
7.00000 1771.000
7.08000 1776.000
7.16000 1659.000
7.24000 1686.000
7.32000 1575.000
7.40000 1504.000
7.48000 1477.000
7.56000 1486.000
7.64000 1421.000
7.72000 1387.000
7.80000 1350.000
7.88000 1386.000
7.96000 1276.000
8.04000 1276.000
8.12000 1282.000
8.20000 1192.000
8.28000 1190.000
8.36000 1194.000
8.44000 1150.000
8.52000 1185.000
8.60000 1171.000
8.68000 1220.000
8.76000 1191.000
8.84000 1304.000
8.92000 1259.000
9.00000 1206.000
9.08000 1174.000
9.16000 1067.000
9.24000 1040.000
9.32000 1119.000
9.40000 974.000
9.48000 1062.000
9.56000 1063.000
9.64000 1004.000
9.72000 1073.000
9.80000 1000.000
9.88000 971.000
9.96000 1010.000
10.04000 950.000
10.12000 962.000
10.20000 921.000
10.28000 970.000
10.36000 893.000
10.44000 955.000
10.52000 988.000
10.60000 917.000
10.68000 920.000
10.76000 979.000
10.84000 1248.000
10.92000 1974.000
11.00000 1338.000
11.08000 1024.000
11.16000 896.000
11.24000 899.000
11.32000 913.000
11.40000 860.000
11.48000 879.000
11.56000 873.000
11.64000 840.000
11.72000 909.000
11.80000 865.000
11.88000 826.000
11.96000 893.000
12.04000 863.000
12.12000 890.000
12.20000 928.000
12.28000 897.000
12.36000 885.000
12.44000 906.000
12.52000 934.000
12.60000 960.000
12.68000 1025.000
12.76000 1048.000
12.84000 1022.000
12.92000 950.000
13.00000 880.000
13.08000 846.000
13.16000 881.000
13.24000 841.000
13.32000 860.000
13.40000 840.000
13.48000 869.000
13.56000 857.000
13.64000 851.000
13.72000 850.000
13.80000 863.000
13.88000 849.000
13.96000 889.000
14.04000 809.000
14.12000 901.000
14.20000 848.000
14.28000 869.000
14.36000 888.000
14.44000 884.000
14.52000 875.000
14.60000 924.000
14.68000 876.000
14.76000 850.000
14.84000 897.000
14.92000 883.000
15.00000 909.000
15.08000 919.000
15.16000 923.000
15.24000 1051.000
15.32000 1035.000
15.40000 1107.000
15.48000 1181.000
15.56000 1288.000
15.64000 1307.000
15.72000 1238.000
15.80000 1072.000
15.88000 1051.000
15.96000 969.000
16.04000 1012.000
16.12000 977.000
16.20000 957.000
16.28000 1012.000
16.36000 948.000
16.44000 992.000
16.52000 982.000
16.60000 931.000
16.68000 1036.000
16.76000 1016.000
16.84000 1001.000
16.92000 989.000
17.00000 1007.000
17.08000 1031.000
17.16000 1032.000
17.24000 996.000
17.32000 970.000
17.40000 1061.000
17.48000 1049.000
17.56000 1098.000
17.64000 1065.000
17.72000 1066.000
17.80000 1151.000
17.88000 1205.000
17.96000 1231.000
18.04000 1166.000
18.12000 1234.000
18.20000 1180.000
18.28000 1143.000
18.36000 1176.000
18.44000 1137.000
18.52000 1177.000
18.60000 1191.000
18.68000 1132.000
18.76000 1161.000
18.84000 1193.000
18.92000 1222.000
19.00000 1127.000
19.08000 1254.000
19.16000 1226.000
19.24000 1191.000
19.32000 1255.000
19.40000 1269.000
19.48000 1306.000
19.56000 1334.000
19.64000 1257.000
19.72000 1292.000
19.80000 1310.000
19.88000 1362.000
19.96000 1308.000
20.04000 1319.000
20.12000 1348.000
20.20000 1357.000
20.28000 1413.000
20.36000 1408.000
20.44000 1400.000
20.52000 1407.000
20.60000 1439.000
20.68000 1452.000
20.76000 1469.000
20.84000 1521.000
20.92000 1484.000
21.00000 1510.000
21.08000 1492.000
21.16000 1476.000
21.24000 1488.000
21.32000 1490.000
21.40000 1514.000
21.48000 1595.000
21.56000 1542.000
21.64000 1616.000
21.72000 1595.000
21.80000 1678.000
21.88000 1885.000
21.96000 2128.000
22.04000 1964.000
22.12000 2147.000
22.20000 2159.000
22.28000 2065.000
22.36000 1862.000
22.44000 1885.000
22.52000 1710.000
22.60000 1726.000
22.68000 1634.000
22.76000 1668.000
22.84000 1547.000
22.92000 1621.000
23.00000 1648.000
23.08000 1629.000
23.16000 1617.000
23.24000 1655.000
23.32000 1612.000
23.40000 1689.000
23.48000 1606.000
23.56000 1613.000
23.64000 1618.000
23.72000 1633.000
23.80000 1625.000
23.88000 1676.000
23.96000 1579.000
24.04000 1681.000
24.12000 1634.000
24.20000 1655.000
24.28000 1623.000
24.36000 1586.000
24.44000 1639.000
24.52000 1581.000
24.60000 1572.000
24.68000 1605.000
24.76000 1588.000
24.84000 1652.000
24.92000 1630.000
25.00000 1595.000
25.08000 1634.000
25.16000 1578.000
25.24000 1609.000
25.32000 1603.000
25.40000 1599.000
25.48000 1556.000
25.56000 1614.000
25.64000 1586.000
25.72000 1612.000
25.80000 1586.000
25.88000 1595.000
25.96000 1535.000
26.04000 1653.000
26.12000 1610.000
26.20000 1541.000
26.28000 1587.000
26.36000 1542.000
26.44000 1586.000
26.52000 1548.000
26.60000 1543.000
26.68000 1457.000
26.76000 1590.000
26.84000 1559.000
26.92000 1626.000
27.00000 1669.000
27.08000 1818.000
27.16000 1892.000
27.24000 1869.000
27.32000 1814.000
27.40000 1740.000
27.48000 1710.000
27.56000 1600.000
27.64000 1492.000
27.72000 1597.000
27.80000 1444.000
27.88000 1455.000
27.96000 1437.000
28.04000 1424.000
28.12000 1443.000
28.20000 1436.000
28.28000 1408.000
28.36000 1397.000
28.44000 1520.000
28.52000 1509.000
28.60000 1490.000
28.68000 1471.000
28.76000 1577.000
28.84000 1591.000
28.92000 1486.000
29.00000 1485.000
29.08000 1457.000
29.16000 1474.000
29.24000 1385.000
29.32000 1421.000
29.40000 1453.000
29.48000 1325.000
29.56000 1349.000
29.64000 1413.000
29.72000 1319.000
29.80000 1373.000
29.88000 1414.000
29.96000 1359.000
30.04000 1371.000
30.12000 1373.000
30.20000 1379.000
30.28000 1292.000
30.36000 1333.000
30.44000 1349.000
30.52000 1323.000
30.60000 1387.000
30.68000 1306.000
30.76000 1332.000
30.84000 1323.000
30.92000 1328.000
31.00000 1311.000
31.08000 1283.000
31.16000 1302.000
31.24000 1317.000
31.32000 1361.000
31.40000 1421.000
31.48000 1536.000
31.56000 1774.000
31.64000 1858.000
31.72000 1827.000
31.80000 1529.000
31.88000 1406.000
31.96000 1366.000
32.04000 1289.000
32.12000 1239.000
32.20000 1206.000
32.28000 1215.000
32.36000 1177.000
32.44000 1185.000
32.52000 1109.000
32.60000 1151.000
32.68000 1126.000
32.76000 1180.000
32.84000 1086.000
32.92000 1142.000
33.00000 1051.000
33.08000 1211.000
33.16000 1170.000
33.24000 1178.000
33.32000 1081.000
33.40000 1082.000
33.48000 1093.000
33.56000 1059.000
33.64000 1022.000
33.72000 1003.000
33.80000 986.000
33.88000 1008.000
33.96000 1054.000
34.04000 972.000
34.12000 1027.000
34.20000 986.000
34.28000 971.000
34.36000 990.000
34.44000 964.000
34.52000 1000.000
34.60000 973.000
34.68000 953.000
34.76000 868.000
34.84000 949.000
34.92000 944.000
35.00000 955.000
35.08000 894.000
35.16000 938.000
35.24000 883.000
35.32000 910.000
35.40000 924.000
35.48000 901.000
35.56000 916.000
35.64000 913.000
35.72000 865.000
35.80000 850.000
35.88000 823.000
35.96000 793.000
36.04000 842.000
36.12000 814.000
36.20000 827.000
36.28000 822.000
36.36000 808.000
36.44000 765.000
36.52000 828.000
36.60000 791.000
36.68000 797.000
36.76000 777.000
36.84000 816.000
36.92000 834.000
37.00000 772.000
37.08000 810.000
37.16000 729.000
37.24000 772.000
37.32000 743.000
37.40000 788.000
37.48000 729.000
37.56000 767.000
37.64000 769.000
37.72000 774.000
37.80000 737.000
37.88000 754.000
37.96000 750.000
38.04000 704.000
38.12000 694.000
38.20000 716.000
38.28000 742.000
38.36000 694.000
38.44000 700.000
38.52000 704.000
38.60000 682.000
38.68000 763.000
38.76000 724.000
38.84000 774.000
38.92000 776.000
39.00000 810.000
39.08000 842.000
39.16000 739.000
39.24000 743.000
39.32000 745.000
39.40000 743.000
39.48000 679.000
39.56000 686.000
39.64000 671.000
39.72000 659.000
39.80000 707.000
39.88000 667.000
39.96000 680.000
40.04000 666.000
40.12000 736.000
40.20000 692.000
40.28000 681.000
40.36000 640.000
40.44000 665.000
40.52000 602.000
40.60000 614.000
40.68000 639.000
40.76000 644.000
40.84000 619.000
40.92000 693.000
41.00000 681.000
41.08000 669.000
41.16000 681.000
41.24000 696.000
41.32000 716.000
41.40000 643.000
41.48000 638.000
41.56000 631.000
41.64000 685.000
41.72000 653.000
41.80000 690.000
41.88000 665.000
41.96000 688.000
42.04000 657.000
42.12000 657.000
42.20000 705.000
42.28000 671.000
42.36000 686.000
42.44000 636.000
42.52000 657.000
42.60000 648.000
42.68000 664.000
42.76000 654.000
42.84000 623.000
42.92000 681.000
43.00000 656.000
43.08000 655.000
43.16000 629.000
43.24000 640.000
43.32000 686.000
43.40000 698.000
43.48000 670.000
43.56000 680.000
43.64000 678.000
43.72000 637.000
43.80000 684.000
43.88000 682.000
43.96000 617.000
44.04000 603.000
44.12000 617.000
44.20000 626.000
44.28000 625.000
44.36000 657.000
44.44000 679.000
44.52000 707.000
44.60000 710.000
44.68000 819.000
44.76000 841.000
44.84000 776.000
44.92000 704.000
45.00000 735.000
45.08000 706.000
45.16000 796.000
45.24000 789.000
45.32000 769.000
45.40000 763.000
45.48000 774.000
45.56000 707.000
45.64000 687.000
45.72000 702.000
45.80000 708.000
45.88000 682.000
45.96000 695.000
46.04000 661.000
46.12000 608.000
46.20000 652.000
46.28000 609.000
46.36000 592.000
46.44000 564.000
46.52000 588.000
46.60000 617.000
46.68000 629.000
46.76000 586.000
46.84000 568.000
46.92000 611.000
47.00000 620.000
47.08000 589.000
47.16000 564.000
47.24000 610.000
47.32000 566.000
47.40000 544.000
47.48000 552.000
47.56000 583.000
47.64000 598.000
47.72000 609.000
47.80000 558.000
47.88000 589.000
47.96000 564.000
48.04000 596.000
48.12000 619.000
48.20000 584.000
48.28000 595.000
48.36000 579.000
48.44000 587.000
48.52000 594.000
48.60000 587.000
48.68000 594.000
48.76000 577.000
48.84000 560.000
48.92000 581.000
49.00000 538.000
49.08000 615.000
49.16000 591.000
49.24000 531.000
49.32000 560.000
49.40000 592.000
49.48000 566.000
49.56000 567.000
49.64000 577.000
49.72000 584.000
49.80000 581.000
49.88000 582.000
49.96000 540.000
50.04000 577.000
50.12000 562.000
50.20000 581.000
50.28000 548.000
50.36000 576.000
50.44000 562.000
50.52000 529.000
50.60000 557.000
50.68000 571.000
50.76000 588.000
50.84000 597.000
50.92000 585.000
51.00000 572.000
51.08000 544.000
51.16000 563.000
51.24000 552.000
51.32000 569.000
51.40000 568.000
51.48000 513.000
51.56000 529.000
51.64000 552.000
51.72000 560.000
51.80000 551.000
51.88000 546.000
51.96000 558.000
52.04000 533.000
52.12000 551.000
52.20000 530.000
52.28000 540.000
52.36000 517.000
52.44000 543.000
52.52000 518.000
52.60000 531.000
52.68000 555.000
52.76000 523.000
52.84000 571.000
52.92000 512.000
53.00000 522.000
53.08000 535.000
53.16000 568.000
53.24000 545.000
53.32000 545.000
53.40000 589.000
53.48000 615.000
53.56000 534.000
53.64000 608.000
53.72000 576.000
53.80000 557.000
53.88000 548.000
53.96000 526.000
54.04000 530.000
54.12000 550.000
54.20000 538.000
54.28000 571.000
54.36000 541.000
54.44000 537.000
54.52000 513.000
54.60000 576.000
54.68000 539.000
54.76000 590.000
54.84000 524.000
54.92000 520.000
55.00000 542.000
55.08000 507.000
55.16000 551.000
55.24000 535.000
55.32000 543.000
55.40000 520.000
55.48000 512.000
55.56000 542.000
55.64000 560.000
55.72000 544.000
55.80000 565.000
55.88000 577.000
55.96000 525.000
56.04000 581.000
56.12000 559.000
56.20000 570.000
56.28000 566.000
56.36000 571.000
56.44000 570.000
56.52000 554.000
56.60000 544.000
56.68000 577.000
56.76000 510.000
56.84000 559.000
56.92000 493.000
57.00000 522.000
57.08000 528.000
57.16000 521.000
57.24000 551.000
57.32000 585.000
57.40000 554.000
57.48000 553.000
57.56000 518.000
57.64000 539.000
57.72000 617.000
57.80000 563.000
57.88000 541.000
57.96000 546.000
58.04000 556.000
58.12000 525.000
58.20000 558.000
58.28000 536.000
58.36000 502.000
58.44000 552.000
58.52000 547.000
58.60000 525.000
58.68000 531.000
58.76000 561.000
58.84000 520.000
58.92000 562.000
59.00000 529.000
59.08000 500.000
59.16000 549.000
59.24000 507.000
59.32000 555.000
59.40000 514.000
59.48000 547.000
59.56000 558.000
59.64000 586.000
59.72000 539.000
59.80000 561.000
59.88000 510.000
59.96000 473.000
60.04000 496.000
60.12000 539.000
60.20000 527.000
60.28000 551.000
60.36000 531.000
60.44000 517.000
60.52000 538.000
60.60000 515.000
60.68000 553.000
60.76000 502.000
60.84000 549.000
60.92000 549.000
61.00000 542.000
61.08000 544.000
61.16000 526.000
61.24000 563.000
61.32000 533.000
61.40000 542.000
61.48000 555.000
61.56000 542.000
61.64000 566.000
61.72000 570.000
61.80000 564.000
61.88000 531.000
61.96000 547.000
62.04000 533.000
62.12000 525.000
62.20000 545.000
62.28000 533.000
62.36000 563.000
62.44000 583.000
62.52000 527.000
62.60000 547.000
62.68000 536.000
62.76000 553.000
62.84000 534.000
62.92000 532.000
63.00000 540.000
63.08000 541.000
63.16000 501.000
63.24000 548.000
63.32000 508.000
63.40000 532.000
63.48000 522.000
63.56000 523.000
63.64000 545.000
63.72000 536.000
63.80000 540.000
63.88000 504.000
63.96000 497.000
64.04000 524.000
64.12000 515.000
64.20000 527.000
64.28000 501.000
64.36000 555.000
64.44000 487.000
64.52000 487.000
64.60000 495.000
64.68000 481.000
64.76000 536.000
64.84000 494.000
64.92000 528.000
65.00000 548.000
65.08000 498.000
65.16000 538.000
65.24000 474.000
65.32000 530.000
65.40000 551.000
65.48000 516.000
65.56000 452.000
65.64000 533.000
65.72000 512.000
65.80000 545.000
65.88000 513.000
65.96000 526.000
66.04000 514.000
66.12000 545.000
66.20000 542.000
66.28000 523.000
66.36000 534.000
66.44000 476.000
66.52000 445.000
66.60000 527.000
66.68000 481.000
66.76000 481.000
66.84000 481.000
66.92000 510.000
67.00000 453.000
67.08000 476.000
67.16000 496.000
67.24000 498.000
67.32000 480.000
67.40000 487.000
67.48000 497.000
67.56000 448.000
67.64000 502.000
67.72000 427.000
67.80000 499.000
67.88000 444.000
67.96000 464.000
68.04000 456.000
68.12000 463.000
68.20000 475.000
68.28000 508.000
68.36000 477.000
68.44000 482.000
68.52000 481.000
68.60000 460.000
68.68000 486.000
68.76000 464.000
68.84000 479.000
68.92000 495.000
69.00000 450.000
69.08000 433.000
69.16000 439.000
69.24000 434.000
69.32000 486.000
69.40000 489.000
69.48000 456.000
69.56000 542.000
69.64000 458.000
69.72000 479.000
69.80000 506.000
69.88000 495.000
69.92000 453.000