File: XRD/4.xy
5.00000 575.000
5.04000 588.000
5.08000 601.000
5.12000 555.000
5.16000 594.000
5.20000 564.000
5.24000 565.000
5.28000 584.000
5.32000 591.000
5.36000 574.000
5.40000 573.000
5.44000 565.000
5.48000 583.000
5.52000 560.000
5.56000 518.000
5.60000 530.000
5.64000 540.000
5.68000 521.000
5.72000 533.000
5.76000 526.000
5.80000 499.000
5.84000 543.000
5.88000 541.000
5.92000 502.000
5.96000 484.000
6.00000 475.000
6.04000 457.000
6.08000 487.000
6.12000 490.000
6.16000 466.000
6.20000 450.000
6.24000 450.000
6.28000 466.000
6.32000 479.000
6.36000 467.000
6.40000 469.000
6.44000 483.000
6.48000 438.000
6.52000 459.000
6.56000 477.000
6.60000 465.000
6.64000 441.000
6.68000 454.000
6.72000 434.000
6.76000 454.000
6.80000 410.000
6.84000 383.000
6.88000 428.000
6.92000 411.000
6.96000 390.000
7.00000 410.000
7.04000 443.000
7.08000 443.000
7.12000 431.000
7.16000 442.000
7.20000 417.000
7.24000 406.000
7.28000 409.000
7.32000 418.000
7.36000 393.000
7.40000 411.000
7.44000 435.000
7.48000 436.000
7.52000 355.000
7.56000 380.000
7.60000 403.000
7.64000 403.000
7.68000 407.000
7.72000 389.000
7.76000 388.000
7.80000 372.000
7.84000 403.000
7.88000 393.000
7.92000 352.000
7.96000 363.000
8.00000 399.000
8.04000 389.000
8.08000 324.000
8.12000 382.000
8.16000 342.000
8.20000 378.000
8.24000 353.000
8.28000 326.000
8.32000 354.000
8.36000 331.000
8.40000 365.000
8.44000 376.000
8.48000 368.000
8.52000 355.000
8.56000 338.000
8.60000 355.000
8.64000 357.000
8.68000 325.000
8.72000 325.000
8.76000 344.000
8.80000 350.000
8.84000 304.000
8.88000 347.000
8.92000 329.000
8.96000 346.000
9.00000 337.000
9.04000 349.000
9.08000 312.000
9.12000 317.000
9.16000 322.000
9.20000 325.000
9.24000 345.000
9.28000 318.000
9.32000 309.000
9.36000 291.000
9.40000 314.000
9.44000 289.000
9.48000 328.000
9.52000 306.000
9.56000 296.000
9.60000 274.000
9.64000 299.000
9.68000 298.000
9.72000 279.000
9.76000 281.000
9.80000 323.000
9.84000 302.000
9.88000 289.000
9.92000 320.000
9.96000 296.000
10.00000 315.000
10.04000 307.000
10.08000 277.000
10.12000 282.000
10.16000 302.000
10.20000 307.000
10.24000 280.000
10.28000 285.000
10.32000 283.000
10.36000 307.000
10.40000 285.000
10.44000 269.000
10.48000 279.000
10.52000 302.000
10.56000 265.000
10.60000 274.000
10.64000 281.000
10.68000 258.000
10.72000 268.000
10.76000 289.000
10.80000 289.000
10.84000 293.000
10.88000 271.000
10.92000 283.000
10.96000 234.000
11.00000 243.000
11.04000 274.000
11.08000 294.000
11.12000 269.000
11.16000 290.000
11.20000 275.000
11.24000 274.000
11.28000 302.000
11.32000 273.000
11.36000 270.000
11.40000 306.000
11.44000 290.000
11.48000 315.000
11.52000 288.000
11.56000 332.000
11.60000 341.000
11.64000 308.000
11.68000 320.000
11.72000 348.000
11.76000 318.000
11.80000 271.000
11.84000 331.000
11.88000 272.000
11.92000 307.000
11.96000 294.000
12.00000 274.000
12.04000 301.000
12.08000 310.000
12.12000 311.000
12.16000 328.000
12.20000 289.000
12.24000 299.000
12.28000 309.000
12.32000 296.000
12.36000 297.000
12.40000 300.000
12.44000 313.000
12.48000 337.000
12.52000 346.000
12.56000 318.000
12.60000 315.000
12.64000 318.000
12.68000 329.000
12.72000 339.000
12.76000 318.000
12.80000 315.000
12.84000 341.000
12.88000 319.000
12.92000 347.000
12.96000 324.000
13.00000 357.000
13.04000 381.000
13.08000 363.000
13.12000 355.000
13.16000 419.000
13.20000 444.000
13.24000 478.000
13.28000 478.000
13.32000 470.000
13.36000 542.000
13.40000 638.000
13.44000 720.000
13.48000 746.000
13.52000 818.000
13.56000 919.000
13.60000 967.000
13.64000 1111.000
13.68000 1186.000
13.72000 1352.000
13.76000 1665.000
13.80000 1848.000
13.84000 2256.000
13.88000 2682.000
13.92000 3299.000
13.96000 4144.000
14.00000 4886.000
14.04000 6319.000
14.08000 7723.000
14.12000 8871.000
14.16000 8721.000
14.20000 7043.000
14.24000 4421.000
14.28000 2635.000
14.32000 1727.000
14.36000 1122.000
14.40000 780.000
14.44000 593.000
14.48000 522.000
14.52000 450.000
14.56000 379.000
14.60000 370.000
14.64000 330.000
14.68000 303.000
14.72000 312.000
14.76000 297.000
14.80000 280.000
14.84000 295.000
14.88000 238.000
14.92000 217.000
14.96000 239.000
15.00000 238.000
15.04000 238.000
15.08000 241.000
15.12000 227.000
15.16000 212.000
15.20000 242.000
15.24000 239.000
15.28000 189.000
15.32000 238.000
15.36000 200.000
15.40000 229.000
15.44000 226.000
15.48000 218.000
15.52000 201.000
15.56000 217.000
15.60000 191.000
15.64000 208.000
15.68000 195.000
15.72000 202.000
15.76000 214.000
15.80000 186.000
15.84000 200.000
15.88000 214.000
15.92000 211.000
15.96000 213.000
16.00000 181.000
16.04000 185.000
16.08000 213.000
16.12000 216.000
16.16000 205.000
16.20000 178.000
16.24000 194.000
16.28000 200.000
16.32000 212.000
16.36000 215.000
16.40000 195.000
16.44000 180.000
16.48000 191.000
16.52000 176.000
16.56000 222.000
16.60000 188.000
16.64000 178.000
16.68000 194.000
16.72000 206.000
16.76000 193.000
16.80000 211.000
16.84000 184.000
16.88000 182.000
16.92000 180.000
16.96000 180.000
17.00000 175.000
17.04000 195.000
17.08000 193.000
17.12000 168.000
17.16000 186.000
17.20000 188.000
17.24000 176.000
17.28000 175.000
17.32000 168.000
17.36000 191.000
17.40000 146.000
17.44000 192.000
17.48000 188.000
17.52000 189.000
17.56000 179.000
17.60000 181.000
17.64000 163.000
17.68000 180.000
17.72000 181.000
17.76000 185.000
17.80000 184.000
17.84000 193.000
17.88000 185.000
17.92000 190.000
17.96000 166.000
18.00000 190.000
18.04000 174.000
18.08000 200.000
18.12000 154.000
18.16000 153.000
18.20000 172.000
18.24000 185.000
18.28000 200.000
18.32000 197.000
18.36000 175.000
18.40000 166.000
18.44000 186.000
18.48000 171.000
18.52000 183.000
18.56000 187.000
18.60000 184.000
18.64000 183.000
18.68000 171.000
18.72000 185.000
18.76000 189.000
18.80000 184.000
18.84000 187.000
18.88000 189.000
18.92000 198.000
18.96000 181.000
19.00000 172.000
19.04000 207.000
19.08000 192.000
19.12000 190.000
19.16000 195.000
19.20000 182.000
19.24000 204.000
19.28000 195.000
19.32000 198.000
19.36000 212.000
19.40000 202.000
19.44000 189.000
19.48000 198.000
19.52000 205.000
19.56000 230.000
19.60000 228.000
19.64000 237.000
19.68000 282.000
19.72000 292.000
19.76000 288.000
19.80000 322.000
19.84000 363.000
19.88000 427.000
19.92000 497.000
19.96000 664.000
20.00000 756.000
20.04000 897.000
20.08000 967.000
20.12000 963.000
20.16000 806.000
20.20000 536.000
20.24000 389.000
20.28000 308.000
20.32000 269.000
20.36000 257.000
20.40000 207.000
20.44000 208.000
20.48000 202.000
20.52000 218.000
20.56000 208.000
20.60000 187.000
20.64000 197.000
20.68000 216.000
20.72000 206.000
20.76000 172.000
20.80000 223.000
20.84000 238.000
20.88000 195.000
20.92000 183.000
20.96000 205.000
21.00000 191.000
21.04000 209.000
21.08000 224.000
21.12000 204.000
21.16000 205.000
21.20000 206.000
21.24000 174.000
21.28000 210.000
21.32000 197.000
21.36000 221.000
21.40000 185.000
21.44000 183.000
21.48000 213.000
21.52000 210.000
21.56000 180.000
21.60000 207.000
21.64000 238.000
21.68000 189.000
21.72000 210.000
21.76000 206.000
21.80000 196.000
21.84000 186.000
21.88000 202.000
21.92000 188.000
21.96000 217.000
22.00000 205.000
22.04000 170.000
22.08000 188.000
22.12000 211.000
22.16000 209.000
22.20000 204.000
22.24000 211.000
22.28000 218.000
22.32000 203.000
22.36000 211.000
22.40000 246.000
22.44000 175.000
22.48000 202.000
22.52000 179.000
22.56000 223.000
22.60000 198.000
22.64000 203.000
22.68000 211.000
22.72000 226.000
22.76000 211.000
22.80000 215.000
22.84000 209.000
22.88000 196.000
22.92000 229.000
22.96000 175.000
23.00000 185.000
23.04000 201.000
23.08000 242.000
23.12000 197.000
23.16000 214.000
23.20000 181.000
23.24000 223.000
23.28000 218.000
23.32000 216.000
23.36000 232.000
23.40000 203.000
23.44000 199.000
23.48000 200.000
23.52000 211.000
23.56000 227.000
23.60000 216.000
23.64000 233.000
23.68000 199.000
23.72000 199.000
23.76000 189.000
23.80000 215.000
23.84000 219.000
23.88000 217.000
23.92000 213.000
23.96000 231.000
24.00000 234.000
24.04000 235.000
24.08000 227.000
24.12000 266.000
24.16000 251.000
24.20000 237.000
24.24000 234.000
24.28000 243.000
24.32000 290.000
24.36000 306.000
24.40000 357.000
24.44000 406.000
24.48000 447.000
24.52000 547.000
24.56000 684.000
24.60000 831.000
24.64000 959.000
24.68000 1061.000
24.72000 961.000
24.76000 738.000
24.80000 592.000
24.84000 452.000
24.88000 347.000
24.92000 330.000
24.96000 242.000
25.00000 243.000
25.04000 284.000
25.08000 235.000
25.12000 226.000
25.16000 245.000
25.20000 250.000
25.24000 240.000
25.28000 240.000
25.32000 215.000
25.36000 235.000
25.40000 233.000
25.44000 254.000
25.48000 229.000
25.52000 236.000
25.56000 213.000
25.60000 216.000
25.64000 211.000
25.68000 240.000
25.72000 221.000
25.76000 212.000
25.80000 237.000
25.84000 210.000
25.88000 222.000
25.92000 207.000
25.96000 210.000
26.00000 217.000
26.04000 211.000
26.08000 204.000
26.12000 195.000
26.16000 225.000
26.20000 201.000
26.24000 188.000
26.28000 207.000
26.32000 212.000
26.36000 205.000
26.40000 194.000
26.44000 216.000
26.48000 207.000
26.52000 198.000
26.56000 196.000
26.60000 195.000
26.64000 204.000
26.68000 199.000
26.72000 203.000
26.76000 236.000
26.80000 209.000
26.84000 235.000
26.88000 206.000
26.92000 187.000
26.96000 215.000
27.00000 228.000
27.04000 244.000
27.08000 204.000
27.12000 230.000
27.16000 223.000
27.20000 232.000
27.24000 252.000
27.28000 252.000
27.32000 255.000
27.36000 259.000
27.40000 273.000
27.44000 241.000
27.48000 244.000
27.52000 241.000
27.56000 223.000
27.60000 218.000
27.64000 247.000
27.68000 240.000
27.72000 255.000
27.76000 241.000
27.80000 243.000
27.84000 258.000
27.88000 237.000
27.92000 284.000
27.96000 290.000
28.00000 321.000
28.04000 313.000
28.08000 345.000
28.12000 357.000
28.16000 444.000
28.20000 547.000
28.24000 624.000
28.28000 824.000
28.32000 1030.000
28.36000 1428.000
28.40000 1753.000
28.44000 2485.000
28.48000 3179.000
28.52000 3753.000
28.56000 4092.000
28.60000 3632.000
28.64000 3017.000
28.68000 2056.000
28.72000 1363.000
28.76000 891.000
28.80000 658.000
28.84000 513.000
28.88000 422.000
28.92000 351.000
28.96000 284.000
29.00000 285.000
29.04000 242.000
29.08000 267.000
29.12000 245.000
29.16000 229.000
29.20000 197.000
29.24000 214.000
29.28000 219.000
29.32000 204.000
29.36000 211.000
29.40000 173.000
29.44000 203.000
29.48000 169.000
29.52000 188.000
29.56000 174.000
29.60000 174.000
29.64000 193.000
29.68000 158.000
29.72000 158.000
29.76000 179.000
29.80000 155.000
29.84000 184.000
29.88000 164.000
29.92000 158.000
29.96000 146.000
30.00000 148.000
30.04000 176.000
30.08000 162.000
30.12000 166.000
30.16000 154.000
30.20000 158.000
30.24000 135.000
30.28000 160.000
30.32000 150.000
30.36000 142.000
30.40000 170.000
30.44000 152.000
30.48000 160.000
30.52000 169.000
30.56000 193.000
30.60000 201.000
30.64000 190.000
30.68000 182.000
30.72000 167.000
30.76000 185.000
30.80000 147.000
30.84000 180.000
30.88000 179.000
30.92000 185.000
30.96000 180.000
31.00000 170.000
31.04000 186.000
31.08000 183.000
31.12000 173.000
31.16000 155.000
31.20000 185.000
31.24000 207.000
31.28000 179.000
31.32000 179.000
31.36000 196.000
31.40000 201.000
31.44000 195.000
31.48000 195.000
31.52000 212.000
31.56000 205.000
31.60000 243.000
31.64000 316.000
31.68000 341.000
31.72000 460.000
31.76000 543.000
31.80000 797.000
31.84000 984.000
31.88000 1346.000
31.92000 1856.000
31.96000 2226.000
32.00000 2725.000
32.04000 2697.000
32.08000 2502.000
32.12000 1845.000
32.16000 1339.000
32.20000 988.000
32.24000 658.000
32.28000 457.000
32.32000 348.000
32.36000 289.000
32.40000 221.000
32.44000 210.000
32.48000 209.000
32.52000 158.000
32.56000 170.000
32.60000 161.000
32.64000 137.000
32.68000 126.000
32.72000 143.000
32.76000 142.000
32.80000 161.000
32.84000 137.000
32.88000 131.000
32.92000 141.000
32.96000 144.000
33.00000 109.000
33.04000 150.000
33.08000 139.000
33.12000 145.000
33.16000 130.000
33.20000 124.000
33.24000 116.000
33.28000 103.000
33.32000 115.000
33.36000 115.000
33.40000 112.000
33.44000 110.000
33.48000 128.000
33.52000 112.000
33.56000 104.000
33.60000 115.000
33.64000 97.000
33.68000 127.000
33.72000 138.000
33.76000 127.000
33.80000 133.000
33.84000 104.000
33.88000 129.000
33.92000 112.000
33.96000 109.000
34.00000 105.000
34.04000 100.000
34.08000 97.000
34.12000 100.000
34.16000 124.000
34.20000 128.000
34.24000 92.000
34.28000 94.000
34.32000 103.000
34.36000 105.000
34.40000 115.000
34.44000 122.000
34.48000 110.000
34.52000 115.000
34.56000 134.000
34.60000 109.000
34.64000 113.000
34.68000 102.000
34.72000 108.000
34.76000 136.000
34.80000 124.000
34.84000 127.000
34.88000 140.000
34.92000 180.000
34.96000 180.000
35.00000 204.000
35.04000 273.000
35.08000 319.000
35.12000 380.000
35.16000 517.000
35.20000 520.000
35.24000 489.000
35.28000 432.000
35.32000 324.000
35.36000 291.000
35.40000 222.000
35.44000 188.000
35.48000 155.000
35.52000 137.000
35.56000 139.000
35.60000 110.000
35.64000 120.000
35.68000 128.000
35.72000 91.000
35.76000 110.000
35.80000 98.000
35.84000 121.000
35.88000 102.000
35.92000 110.000
35.96000 104.000
36.00000 86.000
36.04000 90.000
36.08000 115.000
36.12000 88.000
36.16000 104.000
36.20000 98.000
36.24000 95.000
36.28000 98.000
36.32000 103.000
36.36000 109.000
36.40000 107.000
36.44000 108.000
36.48000 86.000
36.52000 101.000
36.56000 101.000
36.60000 90.000
36.64000 102.000
36.68000 90.000
36.72000 89.000
36.76000 97.000
36.80000 110.000
36.84000 114.000
36.88000 103.000
36.92000 104.000
36.96000 103.000
37.00000 104.000
37.04000 92.000
37.08000 101.000
37.12000 106.000
37.16000 111.000
37.20000 101.000
37.24000 88.000
37.28000 99.000
37.32000 90.000
37.36000 92.000
37.40000 104.000
37.44000 84.000
37.48000 93.000
37.52000 86.000
37.56000 98.000
37.60000 111.000
37.64000 109.000
37.68000 94.000
37.72000 90.000
37.76000 89.000
37.80000 120.000
37.84000 91.000
37.88000 82.000
37.92000 93.000
37.96000 93.000
38.00000 93.000
38.04000 97.000
38.08000 100.000
38.12000 103.000
38.16000 102.000
38.20000 94.000
38.24000 89.000
38.28000 97.000
38.32000 95.000
38.36000 99.000
38.40000 121.000
38.44000 114.000
38.48000 88.000
38.52000 100.000
38.56000 102.000
38.60000 93.000
38.64000 98.000
38.68000 89.000
38.72000 93.000
38.76000 116.000
38.80000 102.000
38.84000 106.000
38.88000 106.000
38.92000 130.000
38.96000 92.000
39.00000 120.000
39.04000 116.000
39.08000 112.000
39.12000 98.000
39.16000 111.000
39.20000 102.000
39.24000 99.000
39.28000 99.000
39.32000 79.000
39.36000 92.000
39.40000 113.000
39.44000 103.000
39.48000 106.000
39.52000 96.000
39.56000 99.000
39.60000 114.000
39.64000 117.000
39.68000 116.000
39.72000 92.000
39.76000 97.000
39.80000 112.000
39.84000 100.000
39.88000 115.000
39.92000 108.000
39.96000 120.000
40.00000 112.000
40.04000 108.000
40.08000 113.000
40.12000 125.000
40.16000 101.000
40.20000 131.000
40.24000 108.000
40.28000 114.000
40.32000 115.000
40.36000 113.000
40.40000 135.000
40.44000 123.000
40.48000 152.000
40.52000 159.000
40.56000 222.000
40.60000 243.000
40.64000 320.000
40.68000 397.000
40.72000 587.000
40.76000 778.000
40.80000 1058.000
40.84000 1213.000
40.88000 1301.000
40.92000 1173.000
40.96000 1028.000
41.00000 860.000
41.04000 666.000
41.08000 452.000
41.12000 311.000
41.16000 238.000
41.20000 204.000
41.24000 186.000
41.28000 159.000
41.32000 138.000
41.36000 128.000
41.40000 137.000
41.44000 113.000
41.48000 139.000
41.52000 135.000
41.56000 122.000
41.60000 133.000
41.64000 125.000
41.68000 135.000
41.72000 124.000
41.76000 108.000
41.80000 108.000
41.84000 106.000
41.88000 95.000
41.92000 128.000
41.96000 108.000
42.00000 115.000
42.04000 115.000
42.08000 140.000
42.12000 114.000
42.16000 101.000
42.20000 113.000
42.24000 120.000
42.28000 111.000
42.32000 111.000
42.36000 119.000
42.40000 81.000
42.44000 101.000
42.48000 118.000
42.52000 113.000
42.56000 106.000
42.60000 99.000
42.64000 119.000
42.68000 120.000
42.72000 115.000
42.76000 129.000
42.80000 126.000
42.84000 108.000
42.88000 105.000
42.92000 120.000
42.96000 144.000
43.00000 131.000
43.04000 108.000
43.08000 155.000
43.12000 164.000
43.16000 205.000
43.20000 230.000
43.24000 288.000
43.28000 370.000
43.32000 529.000
43.36000 635.000
43.40000 817.000
43.44000 947.000
43.48000 1034.000
43.52000 883.000
43.56000 793.000
43.60000 682.000
43.64000 526.000
43.68000 370.000
43.72000 246.000
43.76000 214.000
43.80000 188.000
43.84000 147.000
43.88000 149.000
43.92000 132.000
43.96000 113.000
44.00000 111.000
44.04000 113.000
44.08000 105.000
44.12000 94.000
44.16000 117.000
44.20000 117.000
44.24000 96.000
44.28000 108.000
44.32000 88.000
44.36000 95.000
44.40000 100.000
44.44000 102.000
44.48000 94.000
44.52000 95.000
44.56000 95.000
44.60000 78.000
44.64000 99.000
44.68000 115.000
44.72000 89.000
44.76000 94.000
44.80000 84.000
44.84000 97.000
44.88000 92.000
44.92000 93.000
44.96000 93.000
45.00000 89.000
45.04000 68.000
45.08000 85.000
45.12000 82.000
45.16000 84.000
45.20000 91.000
45.24000 78.000
45.28000 93.000
45.32000 85.000
45.36000 80.000
45.40000 83.000
45.44000 98.000
45.48000 100.000
45.52000 88.000
45.56000 88.000
45.60000 94.000
45.64000 80.000
45.68000 83.000
45.72000 79.000
45.76000 93.000
45.80000 109.000
45.84000 120.000
45.88000 120.000
45.92000 149.000
45.96000 142.000
46.00000 135.000
46.04000 115.000
46.08000 117.000
46.12000 106.000
46.16000 113.000
46.20000 83.000
46.24000 87.000
46.28000 79.000
46.32000 70.000
46.36000 69.000
46.40000 77.000
46.44000 80.000
46.48000 80.000
46.52000 77.000
46.56000 90.000
46.60000 76.000
46.64000 76.000
46.68000 65.000
46.72000 86.000
46.76000 69.000
46.80000 85.000
46.84000 85.000
46.88000 90.000
46.92000 71.000
46.96000 75.000
47.00000 95.000
47.04000 78.000
47.08000 83.000
47.12000 65.000
47.16000 88.000
47.20000 78.000
47.24000 82.000
47.28000 81.000
47.32000 78.000
47.36000 87.000
47.40000 66.000
47.44000 79.000
47.48000 76.000
47.52000 74.000
47.56000 59.000
47.60000 83.000
47.64000 73.000
47.68000 58.000
47.72000 78.000
47.76000 77.000
47.80000 76.000
47.84000 61.000
47.88000 76.000
47.92000 68.000
47.96000 75.000
48.00000 68.000
48.04000 72.000
48.08000 65.000
48.12000 70.000
48.16000 73.000
48.20000 78.000
48.24000 89.000
48.28000 97.000
48.32000 95.000
48.36000 78.000
48.40000 101.000
48.44000 82.000
48.48000 90.000
48.52000 82.000
48.56000 90.000
48.60000 66.000
48.64000 79.000
48.68000 73.000
48.72000 81.000
48.76000 71.000
48.80000 57.000
48.84000 73.000
48.88000 71.000
48.92000 59.000
48.96000 76.000
49.00000 70.000
49.04000 65.000
49.08000 64.000
49.12000 78.000
49.16000 64.000
49.20000 70.000
49.24000 69.000
49.28000 82.000
49.32000 74.000
49.36000 80.000
49.40000 79.000
49.44000 89.000
49.48000 68.000
49.52000 73.000
49.56000 62.000
49.60000 71.000
49.64000 64.000
49.68000 71.000
49.72000 59.000
49.76000 79.000
49.80000 72.000
49.84000 80.000
49.88000 67.000
49.92000 71.000
49.96000 87.000
50.00000 81.000
50.04000 79.000
50.08000 75.000
50.12000 84.000
50.16000 69.000
50.20000 91.000
50.24000 85.000
50.28000 97.000
50.32000 87.000
50.36000 133.000
50.40000 128.000
50.44000 145.000
50.48000 180.000
50.52000 191.000
50.56000 219.000
50.60000 239.000
50.64000 264.000
50.68000 232.000
50.72000 226.000
50.76000 203.000
50.80000 182.000
50.84000 151.000
50.88000 145.000
50.92000 125.000
50.96000 96.000
51.00000 102.000
51.04000 83.000
51.08000 76.000
51.12000 72.000
51.16000 106.000
51.20000 76.000
51.24000 87.000
51.28000 82.000
51.32000 73.000
51.36000 70.000
51.40000 68.000
51.44000 75.000
51.48000 72.000
51.52000 69.000
51.56000 64.000
51.60000 77.000
51.64000 64.000
51.68000 64.000
51.72000 72.000
51.76000 84.000
51.80000 56.000
51.84000 67.000
51.88000 71.000
51.92000 63.000
51.96000 77.000
52.00000 67.000
52.04000 67.000
52.08000 60.000
52.12000 71.000
52.16000 80.000
52.20000 76.000
52.24000 57.000
52.28000 70.000
52.32000 73.000
52.36000 80.000
52.40000 70.000
52.44000 73.000
52.48000 92.000
52.52000 100.000
52.56000 94.000
52.60000 93.000
52.64000 126.000
52.68000 133.000
52.72000 157.000
52.76000 190.000
52.80000 205.000
52.84000 225.000
52.88000 231.000
52.92000 220.000
52.96000 219.000
53.00000 216.000
53.04000 166.000
53.08000 134.000
53.12000 104.000
53.16000 116.000
53.20000 98.000
53.24000 85.000
53.28000 77.000
53.32000 67.000
53.36000 68.000
53.40000 77.000
53.44000 73.000
53.48000 70.000
53.52000 72.000
53.56000 62.000
53.60000 62.000
53.64000 61.000
53.68000 59.000
53.72000 63.000
53.76000 71.000
53.80000 65.000
53.84000 67.000
53.88000 55.000
53.92000 64.000
53.96000 64.000
54.00000 81.000
54.04000 70.000
54.08000 58.000
54.12000 70.000
54.16000 55.000
54.20000 57.000
54.24000 78.000
54.28000 69.000
54.32000 67.000
54.36000 65.000
54.40000 71.000
54.44000 77.000
54.48000 55.000
54.52000 60.000
54.56000 56.000
54.60000 64.000
54.64000 72.000
54.68000 66.000
54.72000 68.000
54.76000 90.000
54.80000 81.000
54.84000 83.000
54.88000 80.000
54.92000 126.000
54.96000 114.000
55.00000 123.000
55.04000 139.000
55.08000 130.000
55.12000 99.000
55.16000 115.000
55.20000 89.000
55.24000 96.000
55.28000 72.000
55.32000 88.000
55.36000 89.000
55.40000 56.000
55.44000 64.000
55.48000 73.000
55.52000 48.000
55.56000 54.000
55.60000 77.000
55.64000 49.000
55.68000 60.000
55.72000 57.000
55.76000 68.000
55.80000 57.000
55.84000 54.000
55.88000 62.000
55.92000 58.000
55.96000 48.000
56.00000 65.000
56.04000 51.000
56.08000 69.000
56.12000 70.000
56.16000 61.000
56.20000 60.000
56.24000 46.000
56.28000 57.000
56.32000 55.000
56.36000 64.000
56.40000 68.000
56.44000 57.000
56.48000 58.000
56.52000 49.000
56.56000 63.000
56.60000 63.000
56.64000 63.000
56.68000 48.000
56.72000 50.000
56.76000 60.000
56.80000 72.000
56.84000 71.000
56.88000 64.000
56.92000 66.000
56.96000 69.000
57.00000 46.000
57.04000 55.000
57.08000 68.000
57.12000 50.000
57.16000 67.000
57.20000 47.000
57.24000 69.000
57.28000 55.000
57.32000 56.000
57.36000 49.000
57.40000 58.000
57.44000 72.000
57.48000 68.000
57.52000 61.000
57.56000 65.000
57.60000 45.000
57.64000 55.000
57.68000 61.000
57.72000 62.000
57.76000 57.000
57.80000 60.000
57.84000 52.000
57.88000 48.000
57.92000 59.000
57.96000 52.000
58.00000 65.000
58.04000 76.000
58.08000 52.000
58.12000 55.000
58.16000 61.000
58.20000 57.000
58.24000 60.000
58.28000 56.000
58.32000 62.000
58.36000 59.000
58.40000 67.000
58.44000 49.000
58.48000 46.000
58.52000 68.000
58.56000 61.000
58.60000 67.000
58.64000 81.000
58.68000 69.000
58.72000 58.000
58.76000 77.000
58.80000 62.000
58.84000 68.000
58.88000 74.000
58.92000 77.000
58.96000 77.000
59.00000 74.000
59.04000 105.000
59.08000 110.000
59.12000 129.000
59.16000 118.000
59.20000 122.000
59.24000 125.000
59.28000 135.000
59.32000 139.000
59.36000 99.000
59.40000 89.000
59.44000 84.000
59.48000 78.000
59.52000 69.000
59.56000 64.000
59.60000 73.000
59.64000 64.000
59.68000 72.000
59.72000 57.000
59.76000 78.000
59.80000 65.000
59.84000 69.000
59.88000 67.000
59.92000 61.000