File: XRD/41.xy
5.00000 1582.000
5.04000 1551.000
5.08000 1435.000
5.12000 1449.000
5.16000 1375.000
5.20000 1311.000
5.24000 1323.000
5.28000 1307.000
5.32000 1294.000
5.36000 1337.000
5.40000 1312.000
5.44000 1319.000
5.48000 1335.000
5.52000 1316.000
5.56000 1279.000
5.60000 1241.000
5.64000 1297.000
5.68000 1252.000
5.72000 1202.000
5.76000 1209.000
5.80000 1249.000
5.84000 1169.000
5.88000 1148.000
5.92000 1212.000
5.96000 1189.000
6.00000 1109.000
6.04000 1129.000
6.08000 1125.000
6.12000 1125.000
6.16000 1132.000
6.20000 1075.000
6.24000 1077.000
6.28000 1095.000
6.32000 1081.000
6.36000 1120.000
6.40000 1088.000
6.44000 1109.000
6.48000 1086.000
6.52000 1024.000
6.56000 1016.000
6.60000 1020.000
6.64000 1048.000
6.68000 984.000
6.72000 959.000
6.76000 1036.000
6.80000 1007.000
6.84000 1038.000
6.88000 984.000
6.92000 962.000
6.96000 1054.000
7.00000 1015.000
7.04000 961.000
7.08000 936.000
7.12000 957.000
7.16000 930.000
7.20000 979.000
7.24000 982.000
7.28000 955.000
7.32000 967.000
7.36000 961.000
7.40000 913.000
7.44000 947.000
7.48000 924.000
7.52000 936.000
7.56000 900.000
7.60000 893.000
7.64000 860.000
7.68000 919.000
7.72000 869.000
7.76000 928.000
7.80000 937.000
7.84000 911.000
7.88000 920.000
7.92000 897.000
7.96000 918.000
8.00000 941.000
8.04000 917.000
8.08000 877.000
8.12000 931.000
8.16000 910.000
8.20000 938.000
8.24000 913.000
8.28000 892.000
8.32000 924.000
8.36000 905.000
8.40000 882.000
8.44000 916.000
8.48000 940.000
8.52000 960.000
8.56000 961.000
8.60000 986.000
8.64000 1025.000
8.68000 1075.000
8.72000 1142.000
8.76000 1201.000
8.80000 1299.000
8.84000 1495.000
8.88000 1744.000
8.92000 2158.000
8.96000 2713.000
9.00000 3756.000
9.04000 6218.000
9.08000 10092.000
9.12000 12914.000
9.16000 10316.000
9.20000 5874.000
9.24000 3202.000
9.28000 2043.000
9.32000 1485.000
9.36000 1175.000
9.40000 1045.000
9.44000 997.000
9.48000 948.000
9.52000 936.000
9.56000 989.000
9.60000 983.000
9.64000 1026.000
9.68000 1013.000
9.72000 1107.000
9.76000 1234.000
9.80000 1378.000
9.84000 1660.000
9.88000 2080.000
9.92000 2464.000
9.96000 2241.000
10.00000 1689.000
10.04000 1434.000
10.08000 1321.000
10.12000 1275.000
10.16000 1275.000
10.20000 1320.000
10.24000 1282.000
10.28000 1342.000
10.32000 1361.000
10.36000 1336.000
10.40000 1350.000
10.44000 1350.000
10.48000 1282.000
10.52000 1353.000
10.56000 1385.000
10.60000 1373.000
10.64000 1401.000
10.68000 1357.000
10.72000 1469.000
10.76000 1434.000
10.80000 1401.000
10.84000 1414.000
10.88000 1635.000
10.92000 1569.000
10.96000 1408.000
11.00000 1375.000
11.04000 1291.000
11.08000 1240.000
11.12000 1185.000
11.16000 1194.000
11.20000 1127.000
11.24000 1112.000
11.28000 1106.000
11.32000 1057.000
11.36000 1045.000
11.40000 962.000
11.44000 984.000
11.48000 915.000
11.52000 890.000
11.56000 862.000
11.60000 896.000
11.64000 769.000
11.68000 811.000
11.72000 780.000
11.76000 770.000
11.80000 789.000
11.84000 729.000
11.88000 704.000
11.92000 702.000
11.96000 681.000
12.00000 678.000
12.04000 634.000
12.08000 630.000
12.12000 625.000
12.16000 648.000
12.20000 622.000
12.24000 663.000
12.28000 627.000
12.32000 628.000
12.36000 615.000
12.40000 624.000
12.44000 635.000
12.48000 622.000
12.52000 604.000
12.56000 639.000
12.60000 637.000
12.64000 616.000
12.68000 718.000
12.72000 657.000
12.76000 717.000
12.80000 787.000
12.84000 771.000
12.88000 860.000
12.92000 922.000
12.96000 960.000
13.00000 862.000
13.04000 849.000
13.08000 714.000
13.12000 724.000
13.16000 658.000
13.20000 630.000
13.24000 632.000
13.28000 594.000
13.32000 614.000
13.36000 589.000
13.40000 613.000
13.44000 574.000
13.48000 565.000
13.52000 596.000
13.56000 629.000
13.60000 646.000
13.64000 640.000
13.68000 740.000
13.72000 713.000
13.76000 702.000
13.80000 670.000
13.84000 704.000
13.88000 659.000
13.92000 606.000
13.96000 594.000
14.00000 570.000
14.04000 606.000
14.08000 588.000
14.12000 594.000
14.16000 580.000
14.20000 584.000
14.24000 652.000
14.28000 612.000
14.32000 579.000
14.36000 607.000
14.40000 570.000
14.44000 625.000
14.48000 627.000
14.52000 646.000
14.56000 673.000
14.60000 731.000
14.64000 781.000
14.68000 872.000
14.72000 1012.000
14.76000 1311.000
14.80000 1901.000
14.84000 2952.000
14.88000 4002.000
14.92000 3984.000
14.96000 2915.000
15.00000 1838.000
15.04000 1228.000
15.08000 960.000
15.12000 741.000
15.16000 709.000
15.20000 665.000
15.24000 684.000
15.28000 663.000
15.32000 646.000
15.36000 680.000
15.40000 728.000
15.44000 680.000
15.48000 676.000
15.52000 701.000
15.56000 771.000
15.60000 824.000
15.64000 960.000
15.68000 998.000
15.72000 1075.000
15.76000 1259.000
15.80000 1464.000
15.84000 1592.000
15.88000 1467.000
15.92000 1357.000
15.96000 1036.000
16.00000 902.000
16.04000 753.000
16.08000 745.000
16.12000 690.000
16.16000 656.000
16.20000 611.000
16.24000 626.000
16.28000 633.000
16.32000 679.000
16.36000 657.000
16.40000 609.000
16.44000 673.000
16.48000 645.000
16.52000 634.000
16.56000 653.000
16.60000 625.000
16.64000 669.000
16.68000 661.000
16.72000 640.000
16.76000 604.000
16.80000 643.000
16.84000 710.000
16.88000 682.000
16.92000 687.000
16.96000 651.000
17.00000 683.000
17.04000 648.000
17.08000 633.000
17.12000 650.000
17.16000 673.000
17.20000 667.000
17.24000 659.000
17.28000 699.000
17.32000 727.000
17.36000 696.000
17.40000 739.000
17.44000 740.000
17.48000 720.000
17.52000 742.000
17.56000 753.000
17.60000 765.000
17.64000 750.000
17.68000 776.000
17.72000 831.000
17.76000 751.000
17.80000 763.000
17.84000 777.000
17.88000 937.000
17.92000 897.000
17.96000 1031.000
18.00000 1155.000
18.04000 1402.000
18.08000 1632.000
18.12000 2157.000
18.16000 2951.000
18.20000 4687.000
18.24000 7859.000
18.28000 10514.000
18.32000 9935.000
18.36000 6398.000
18.40000 3739.000
18.44000 2251.000
18.48000 1488.000
18.52000 1233.000
18.56000 1002.000
18.60000 963.000
18.64000 802.000
18.68000 870.000
18.72000 858.000
18.76000 826.000
18.80000 822.000
18.84000 836.000
18.88000 820.000
18.92000 802.000
18.96000 771.000
19.00000 826.000
19.04000 808.000
19.08000 814.000
19.12000 820.000
19.16000 846.000
19.20000 775.000
19.24000 829.000
19.28000 816.000
19.32000 778.000
19.36000 807.000
19.40000 822.000
19.44000 825.000
19.48000 801.000
19.52000 828.000
19.56000 886.000
19.60000 860.000
19.64000 847.000
19.68000 829.000
19.72000 928.000
19.76000 845.000
19.80000 840.000
19.84000 841.000
19.88000 854.000
19.92000 854.000
19.96000 898.000
20.00000 847.000
20.04000 861.000
20.08000 922.000
20.12000 867.000
20.16000 883.000
20.20000 867.000
20.24000 915.000
20.28000 892.000
20.32000 857.000
20.36000 926.000
20.40000 947.000
20.44000 919.000
20.48000 963.000
20.52000 892.000
20.56000 934.000
20.60000 962.000
20.64000 995.000
20.68000 955.000
20.72000 969.000
20.76000 954.000
20.80000 894.000
20.84000 987.000
20.88000 980.000
20.92000 1038.000
20.96000 1015.000
21.00000 1008.000
21.04000 1102.000
21.08000 1013.000
21.12000 1024.000
21.16000 1049.000
21.20000 1063.000
21.24000 1073.000
21.28000 1109.000
21.32000 1096.000
21.36000 1090.000
21.40000 1142.000
21.44000 1107.000
21.48000 1150.000
21.52000 1119.000
21.56000 1111.000
21.60000 1093.000
21.64000 1177.000
21.68000 1176.000
21.72000 1221.000
21.76000 1210.000
21.80000 1221.000
21.84000 1153.000
21.88000 1222.000
21.92000 1291.000
21.96000 1308.000
22.00000 1246.000
22.04000 1256.000
22.08000 1252.000
22.12000 1230.000
22.16000 1204.000
22.20000 1251.000
22.24000 1256.000
22.28000 1334.000
22.32000 1378.000
22.36000 1364.000
22.40000 1504.000
22.44000 1493.000
22.48000 1444.000
22.52000 1432.000
22.56000 1384.000
22.60000 1432.000
22.64000 1384.000
22.68000 1333.000
22.72000 1208.000
22.76000 1118.000
22.80000 1100.000
22.84000 1135.000
22.88000 1160.000
22.92000 1111.000
22.96000 1147.000
23.00000 1115.000
23.04000 1066.000
23.08000 1087.000
23.12000 1060.000
23.16000 1057.000
23.20000 1067.000
23.24000 1114.000
23.28000 1057.000
23.32000 1077.000
23.36000 1020.000
23.40000 1044.000
23.44000 1057.000
23.48000 1120.000
23.52000 1086.000
23.56000 1032.000
23.60000 1025.000
23.64000 1030.000
23.68000 1068.000
23.72000 1089.000
23.76000 1054.000
23.80000 1068.000
23.84000 1071.000
23.88000 1065.000
23.92000 1118.000
23.96000 1027.000
24.00000 1063.000
24.04000 1060.000
24.08000 1095.000
24.12000 1066.000
24.16000 1010.000
24.20000 1074.000
24.24000 1106.000
24.28000 1066.000
24.32000 1108.000
24.36000 1070.000
24.40000 1110.000
24.44000 1095.000
24.48000 1058.000
24.52000 1113.000
24.56000 1034.000
24.60000 1081.000
24.64000 1075.000
24.68000 1079.000
24.72000 1025.000
24.76000 1073.000
24.80000 1172.000
24.84000 1185.000
24.88000 1176.000
24.92000 1275.000
24.96000 1322.000
25.00000 1287.000
25.04000 1169.000
25.08000 1147.000
25.12000 1109.000
25.16000 1138.000
25.20000 1189.000
25.24000 1162.000
25.28000 1097.000
25.32000 1051.000
25.36000 1074.000
25.40000 1128.000
25.44000 1083.000
25.48000 1049.000
25.52000 1070.000
25.56000 1050.000
25.60000 1021.000
25.64000 1018.000
25.68000 1027.000
25.72000 998.000
25.76000 1073.000
25.80000 1008.000
25.84000 1076.000
25.88000 1018.000
25.92000 1031.000
25.96000 1048.000
26.00000 1041.000
26.04000 1153.000
26.08000 1083.000
26.12000 1120.000
26.16000 1149.000
26.20000 1209.000
26.24000 1140.000
26.28000 1170.000
26.32000 1183.000
26.36000 1239.000
26.40000 1180.000
26.44000 1125.000
26.48000 1114.000
26.52000 1174.000
26.56000 1126.000
26.60000 1172.000
26.64000 1081.000
26.68000 1097.000
26.72000 1062.000
26.76000 988.000
26.80000 1080.000
26.84000 1014.000
26.88000 1021.000
26.92000 1070.000
26.96000 1050.000
27.00000 1016.000
27.04000 1037.000
27.08000 1137.000
27.12000 1045.000
27.16000 1093.000
27.20000 1105.000
27.24000 1081.000
27.28000 1208.000
27.32000 1343.000
27.36000 1431.000
27.40000 1768.000
27.44000 2214.000
27.48000 3286.000
27.52000 5000.000
27.56000 6773.000
27.60000 7140.000
27.64000 5674.000
27.68000 3932.000
27.72000 2514.000
27.76000 1919.000
27.80000 1482.000
27.84000 1285.000
27.88000 1177.000
27.92000 1091.000
27.96000 1084.000
28.00000 1083.000
28.04000 1029.000
28.08000 973.000
28.12000 968.000
28.16000 955.000
28.20000 1047.000
28.24000 941.000
28.28000 958.000
28.32000 979.000
28.36000 973.000
28.40000 944.000
28.44000 917.000
28.48000 929.000
28.52000 965.000
28.56000 936.000
28.60000 955.000
28.64000 997.000
28.68000 996.000
28.72000 945.000
28.76000 926.000
28.80000 910.000
28.84000 897.000
28.88000 934.000
28.92000 924.000
28.96000 936.000
29.00000 981.000
29.04000 887.000
29.08000 949.000
29.12000 976.000
29.16000 924.000
29.20000 948.000
29.24000 942.000
29.28000 896.000
29.32000 950.000
29.36000 915.000
29.40000 964.000
29.44000 882.000
29.48000 911.000
29.52000 925.000
29.56000 894.000
29.60000 927.000
29.64000 968.000
29.68000 967.000
29.72000 952.000
29.76000 940.000
29.80000 1029.000
29.84000 988.000
29.88000 1035.000
29.92000 1078.000
29.96000 1212.000
30.00000 1361.000
30.04000 1437.000
30.08000 1354.000
30.12000 1273.000
30.16000 1159.000
30.20000 1023.000
30.24000 988.000
30.28000 974.000
30.32000 926.000
30.36000 919.000
30.40000 941.000
30.44000 980.000
30.48000 991.000
30.52000 1054.000
30.56000 1114.000
30.60000 1116.000
30.64000 1174.000
30.68000 1195.000
30.72000 1192.000
30.76000 1100.000
30.80000 988.000
30.84000 951.000
30.88000 910.000
30.92000 872.000
30.96000 857.000
31.00000 840.000
31.04000 842.000
31.08000 838.000
31.12000 839.000
31.16000 873.000
31.20000 877.000
31.24000 808.000
31.28000 844.000
31.32000 828.000
31.36000 864.000
31.40000 845.000
31.44000 894.000
31.48000 879.000
31.52000 853.000
31.56000 890.000
31.60000 828.000
31.64000 837.000
31.68000 891.000
31.72000 858.000
31.76000 868.000
31.80000 896.000
31.84000 955.000
31.88000 1073.000
31.92000 1167.000
31.96000 1262.000
32.00000 1335.000
32.04000 1515.000
32.08000 1496.000
32.12000 1368.000
32.16000 1227.000
32.20000 1070.000
32.24000 926.000
32.28000 875.000
32.32000 847.000
32.36000 868.000
32.40000 828.000
32.44000 789.000
32.48000 792.000
32.52000 796.000
32.56000 754.000
32.60000 806.000
32.64000 751.000
32.68000 768.000
32.72000 770.000
32.76000 757.000
32.80000 797.000
32.84000 817.000
32.88000 774.000
32.92000 784.000
32.96000 844.000
33.00000 828.000
33.04000 818.000
33.08000 838.000
33.12000 809.000
33.16000 769.000
33.20000 793.000
33.24000 812.000
33.28000 813.000
33.32000 804.000
33.36000 718.000
33.40000 751.000
33.44000 774.000
33.48000 704.000
33.52000 723.000
33.56000 818.000
33.60000 755.000
33.64000 773.000
33.68000 700.000
33.72000 723.000
33.76000 709.000
33.80000 737.000
33.84000 714.000
33.88000 719.000
33.92000 727.000
33.96000 761.000
34.00000 741.000
34.04000 744.000
34.08000 714.000
34.12000 698.000
34.16000 646.000
34.20000 691.000
34.24000 655.000
34.28000 675.000
34.32000 723.000
34.36000 659.000
34.40000 664.000
34.44000 696.000
34.48000 645.000
34.52000 665.000
34.56000 661.000
34.60000 677.000
34.64000 664.000
34.68000 698.000
34.72000 706.000
34.76000 690.000
34.80000 684.000
34.84000 772.000
34.88000 734.000
34.92000 749.000
34.96000 748.000
35.00000 926.000
35.04000 1043.000
35.08000 1362.000
35.12000 1763.000
35.16000 2483.000
35.20000 2669.000
35.24000 2464.000
35.28000 2074.000
35.32000 1612.000
35.36000 1209.000
35.40000 930.000
35.44000 820.000
35.48000 731.000
35.52000 601.000
35.56000 687.000
35.60000 613.000
35.64000 624.000
35.68000 603.000
35.72000 635.000
35.76000 626.000
35.80000 711.000
35.84000 666.000
35.88000 708.000
35.92000 696.000
35.96000 683.000
36.00000 656.000
36.04000 636.000
36.08000 606.000
36.12000 645.000
36.16000 636.000
36.20000 579.000
36.24000 570.000
36.28000 534.000
36.32000 584.000
36.36000 533.000
36.40000 501.000
36.44000 550.000
36.48000 503.000
36.52000 556.000
36.56000 568.000
36.60000 496.000
36.64000 498.000
36.68000 571.000
36.72000 506.000
36.76000 598.000
36.80000 528.000
36.84000 530.000
36.88000 571.000
36.92000 608.000
36.96000 664.000
37.00000 728.000
37.04000 878.000
37.08000 785.000
37.12000 765.000
37.16000 671.000
37.20000 674.000
37.24000 560.000
37.28000 572.000
37.32000 507.000
37.36000 475.000
37.40000 510.000
37.44000 499.000
37.48000 503.000
37.52000 496.000
37.56000 530.000
37.60000 490.000
37.64000 474.000
37.68000 509.000
37.72000 492.000
37.76000 486.000
37.80000 509.000
37.84000 447.000
37.88000 471.000
37.92000 469.000
37.96000 467.000
38.00000 476.000
38.04000 493.000
38.08000 461.000
38.12000 480.000
38.16000 535.000
38.20000 452.000
38.24000 455.000
38.28000 451.000
38.32000 442.000
38.36000 458.000
38.40000 435.000
38.44000 448.000
38.48000 462.000
38.52000 454.000
38.56000 503.000
38.60000 508.000
38.64000 480.000
38.68000 499.000
38.72000 512.000
38.76000 445.000
38.80000 481.000
38.84000 461.000
38.88000 454.000
38.92000 438.000
38.96000 470.000
39.00000 456.000
39.04000 493.000
39.08000 497.000
39.12000 480.000
39.16000 466.000
39.20000 565.000
39.24000 531.000
39.28000 604.000
39.32000 638.000
39.36000 676.000
39.40000 760.000
39.44000 746.000
39.48000 777.000
39.52000 745.000
39.56000 686.000
39.60000 630.000
39.64000 581.000
39.68000 581.000
39.72000 582.000
39.76000 551.000
39.80000 511.000
39.84000 546.000
39.88000 564.000
39.92000 522.000
39.96000 536.000
40.00000 475.000
40.04000 487.000
40.08000 508.000
40.12000 514.000
40.16000 544.000
40.20000 637.000
40.24000 688.000
40.28000 881.000
40.32000 1218.000
40.36000 1788.000
40.40000 2411.000
40.44000 2489.000
40.48000 2204.000
40.52000 1828.000
40.56000 1503.000
40.60000 1045.000
40.64000 828.000
40.68000 633.000
40.72000 576.000
40.76000 506.000
40.80000 508.000
40.84000 471.000
40.88000 470.000
40.92000 508.000
40.96000 455.000
41.00000 489.000
41.04000 468.000
41.08000 438.000
41.12000 468.000
41.16000 464.000
41.20000 469.000
41.24000 438.000
41.28000 437.000
41.32000 486.000
41.36000 467.000
41.40000 414.000
41.44000 475.000
41.48000 470.000
41.52000 443.000
41.56000 417.000
41.60000 467.000
41.64000 480.000
41.68000 474.000
41.72000 458.000
41.76000 474.000
41.80000 459.000
41.84000 397.000
41.88000 419.000
41.92000 446.000
41.96000 476.000
42.00000 424.000
42.04000 444.000
42.08000 459.000
42.12000 466.000
42.16000 461.000
42.20000 472.000
42.24000 457.000
42.28000 466.000
42.32000 452.000
42.36000 478.000
42.40000 452.000
42.44000 435.000
42.48000 432.000
42.52000 468.000
42.56000 450.000
42.60000 419.000
42.64000 444.000
42.68000 455.000
42.72000 419.000
42.76000 477.000
42.80000 451.000
42.84000 436.000
42.88000 412.000
42.92000 454.000
42.96000 471.000
43.00000 445.000
43.04000 404.000
43.08000 452.000
43.12000 419.000
43.16000 435.000
43.20000 465.000
43.24000 473.000
43.28000 449.000
43.32000 475.000
43.36000 448.000
43.40000 495.000
43.44000 499.000
43.48000 438.000
43.52000 443.000
43.56000 479.000
43.60000 450.000
43.64000 495.000
43.68000 459.000
43.72000 463.000
43.76000 449.000
43.80000 507.000
43.84000 524.000
43.88000 559.000
43.92000 526.000
43.96000 476.000
44.00000 476.000
44.04000 538.000
44.08000 481.000
44.12000 513.000
44.16000 526.000
44.20000 547.000
44.24000 560.000
44.28000 521.000
44.32000 520.000
44.36000 497.000
44.40000 527.000
44.44000 488.000
44.48000 553.000
44.52000 502.000
44.56000 540.000
44.60000 499.000
44.64000 539.000
44.68000 588.000
44.72000 546.000
44.76000 559.000
44.80000 560.000
44.84000 535.000
44.88000 524.000
44.92000 554.000
44.96000 538.000
45.00000 503.000
45.04000 549.000
45.08000 512.000
45.12000 522.000
45.16000 496.000
45.20000 496.000
45.24000 486.000
45.28000 451.000
45.32000 470.000
45.36000 471.000
45.40000 466.000
45.44000 489.000
45.48000 448.000
45.52000 441.000
45.56000 502.000
45.60000 454.000
45.64000 474.000
45.68000 532.000
45.72000 569.000
45.76000 569.000
45.80000 562.000
45.84000 565.000
45.88000 538.000
45.92000 538.000
45.96000 488.000
46.00000 478.000
46.04000 496.000
46.08000 491.000
46.12000 549.000
46.16000 483.000
46.20000 485.000
46.24000 501.000
46.28000 433.000
46.32000 485.000
46.36000 446.000
46.40000 446.000
46.44000 460.000
46.48000 418.000
46.52000 448.000
46.56000 466.000
46.60000 459.000
46.64000 545.000
46.68000 578.000
46.72000 687.000
46.76000 841.000
46.80000 975.000
46.84000 1024.000
46.88000 913.000
46.92000 803.000
46.96000 679.000
47.00000 564.000
47.04000 493.000
47.08000 463.000
47.12000 457.000
47.16000 405.000
47.20000 440.000
47.24000 393.000
47.28000 400.000
47.32000 387.000
47.36000 430.000
47.40000 408.000
47.44000 408.000
47.48000 381.000
47.52000 415.000
47.56000 444.000
47.60000 397.000
47.64000 421.000
47.68000 410.000
47.72000 397.000
47.76000 399.000
47.80000 406.000
47.84000 383.000
47.88000 404.000
47.92000 404.000
47.96000 461.000
48.00000 413.000
48.04000 407.000
48.08000 382.000
48.12000 419.000
48.16000 388.000
48.20000 408.000
48.24000 415.000
48.28000 440.000
48.32000 403.000
48.36000 352.000
48.40000 412.000
48.44000 386.000
48.48000 418.000
48.52000 394.000
48.56000 414.000
48.60000 384.000
48.64000 389.000
48.68000 405.000
48.72000 403.000
48.76000 427.000
48.80000 386.000
48.84000 409.000
48.88000 446.000
48.92000 399.000
48.96000 397.000
49.00000 407.000
49.04000 423.000
49.08000 422.000
49.12000 383.000
49.16000 379.000
49.20000 399.000
49.24000 432.000
49.28000 397.000
49.32000 392.000
49.36000 411.000
49.40000 378.000
49.44000 396.000
49.48000 362.000
49.52000 359.000
49.56000 345.000
49.60000 377.000
49.64000 344.000
49.68000 355.000
49.72000 350.000
49.76000 374.000
49.80000 381.000
49.84000 374.000
49.88000 356.000
49.92000 370.000
49.96000 331.000
50.00000 359.000
50.04000 361.000
50.08000 372.000
50.12000 379.000
50.16000 406.000
50.20000 401.000
50.24000 374.000
50.28000 413.000
50.32000 380.000
50.36000 352.000
50.40000 378.000
50.44000 371.000
50.48000 389.000
50.52000 333.000
50.56000 333.000
50.60000 367.000
50.64000 350.000
50.68000 367.000
50.72000 331.000
50.76000 396.000
50.80000 358.000
50.84000 368.000
50.88000 374.000
50.92000 358.000
50.96000 350.000
51.00000 385.000
51.04000 360.000
51.08000 371.000
51.12000 357.000
51.16000 352.000
51.20000 391.000
51.24000 391.000
51.28000 380.000
51.32000 373.000
51.36000 349.000
51.40000 373.000
51.44000 362.000
51.48000 378.000
51.52000 349.000
51.56000 375.000
51.60000 348.000
51.64000 383.000
51.68000 374.000
51.72000 405.000
51.76000 388.000
51.80000 406.000
51.84000 340.000
51.88000 345.000
51.92000 371.000
51.96000 358.000
52.00000 354.000
52.04000 372.000
52.08000 388.000
52.12000 349.000
52.16000 351.000
52.20000 357.000
52.24000 369.000
52.28000 349.000
52.32000 368.000
52.36000 372.000
52.40000 360.000
52.44000 370.000
52.48000 410.000
52.52000 360.000
52.56000 376.000
52.60000 339.000
52.64000 358.000
52.68000 378.000
52.72000 358.000
52.76000 363.000
52.80000 391.000
52.84000 371.000
52.88000 357.000
52.92000 424.000
52.96000 368.000
53.00000 397.000
53.04000 389.000
53.08000 371.000
53.12000 364.000
53.16000 358.000
53.20000 382.000
53.24000 337.000
53.28000 368.000
53.32000 366.000
53.36000 383.000
53.40000 345.000
53.44000 370.000
53.48000 414.000
53.52000 367.000
53.56000 353.000
53.60000 365.000
53.64000 376.000
53.68000 366.000
53.72000 398.000
53.76000 370.000
53.80000 387.000
53.84000 370.000
53.88000 362.000
53.92000 427.000
53.96000 334.000
54.00000 351.000
54.04000 362.000
54.08000 331.000
54.12000 349.000
54.16000 367.000
54.20000 379.000
54.24000 360.000
54.28000 364.000
54.32000 372.000
54.36000 336.000
54.40000 339.000
54.44000 354.000
54.48000 359.000
54.52000 360.000
54.56000 400.000
54.60000 344.000
54.64000 368.000
54.68000 343.000
54.72000 370.000
54.76000 369.000
54.80000 351.000
54.84000 339.000
54.88000 365.000
54.92000 362.000
54.96000 357.000
55.00000 378.000
55.04000 343.000
55.08000 326.000
55.12000 383.000
55.16000 378.000
55.20000 376.000
55.24000 361.000
55.28000 362.000
55.32000 375.000
55.36000 358.000
55.40000 371.000
55.44000 366.000
55.48000 338.000
55.52000 368.000
55.56000 382.000
55.60000 356.000
55.64000 352.000
55.68000 388.000
55.72000 379.000
55.76000 363.000
55.80000 355.000
55.84000 363.000
55.88000 350.000
55.92000 386.000
55.96000 383.000
56.00000 351.000
56.04000 387.000
56.08000 340.000
56.12000 351.000
56.16000 396.000
56.20000 379.000
56.24000 360.000
56.28000 359.000
56.32000 392.000
56.36000 366.000
56.40000 373.000
56.44000 376.000
56.48000 405.000
56.52000 408.000
56.56000 388.000
56.60000 478.000
56.64000 530.000
56.68000 538.000
56.72000 604.000
56.76000 645.000
56.80000 704.000
56.84000 824.000
56.88000 1015.000
56.92000 1226.000
56.96000 1128.000
57.00000 949.000
57.04000 894.000
57.08000 860.000
57.12000 755.000
57.16000 576.000
57.20000 504.000
57.24000 412.000
57.28000 385.000
57.32000 400.000
57.36000 394.000
57.40000 385.000
57.44000 404.000
57.48000 371.000
57.52000 401.000
57.56000 384.000
57.60000 364.000
57.64000 392.000
57.68000 382.000
57.72000 345.000
57.76000 374.000
57.80000 358.000
57.84000 329.000
57.88000 370.000
57.92000 349.000
57.96000 369.000
58.00000 364.000
58.04000 364.000
58.08000 355.000
58.12000 344.000
58.16000 351.000
58.20000 360.000
58.24000 408.000
58.28000 345.000
58.32000 375.000
58.36000 366.000
58.40000 346.000
58.44000 346.000
58.48000 367.000
58.52000 390.000
58.56000 351.000
58.60000 406.000
58.64000 395.000
58.68000 362.000
58.72000 368.000
58.76000 370.000
58.80000 358.000
58.84000 401.000
58.88000 366.000
58.92000 374.000
58.96000 361.000
59.00000 393.000
59.04000 360.000
59.08000 354.000
59.12000 361.000
59.16000 379.000
59.20000 355.000
59.24000 366.000
59.28000 357.000
59.32000 359.000
59.36000 340.000
59.40000 345.000
59.44000 374.000
59.48000 361.000
59.52000 353.000
59.56000 373.000
59.60000 353.000
59.64000 353.000
59.68000 373.000
59.72000 318.000
59.76000 377.000
59.80000 365.000
59.84000 355.000
59.88000 337.000
59.92000 354.000