File: XRD/42.xy
5.00000 6658.000
5.08000 6179.000
5.16000 5617.000
5.24000 5650.000
5.32000 5048.000
5.40000 4861.000
5.48000 4632.000
5.56000 4430.000
5.64000 4177.000
5.72000 3820.000
5.80000 3754.000
5.88000 3582.000
5.96000 3280.000
6.04000 3165.000
6.12000 3012.000
6.20000 2854.000
6.28000 2652.000
6.36000 2638.000
6.44000 2532.000
6.52000 2369.000
6.60000 2257.000
6.68000 2233.000
6.76000 2116.000
6.84000 2006.000
6.92000 1937.000
7.00000 1939.000
7.08000 1817.000
7.16000 1822.000
7.24000 1744.000
7.32000 1625.000
7.40000 1595.000
7.48000 1670.000
7.56000 1635.000
7.64000 1573.000
7.72000 1472.000
7.80000 1422.000
7.88000 1451.000
7.96000 1399.000
8.04000 1346.000
8.12000 1341.000
8.20000 1274.000
8.28000 1234.000
8.36000 1292.000
8.44000 1227.000
8.52000 1255.000
8.60000 1229.000
8.68000 1237.000
8.76000 1159.000
8.84000 1150.000
8.92000 1164.000
9.00000 1172.000
9.08000 1142.000
9.16000 1153.000
9.24000 1089.000
9.32000 1098.000
9.40000 1170.000
9.48000 1132.000
9.56000 1225.000
9.64000 1203.000
9.72000 1368.000
9.80000 1844.000
9.88000 3127.000
9.96000 4846.000
10.04000 3555.000
10.12000 2017.000
10.20000 1420.000
10.28000 1170.000
10.36000 1005.000
10.44000 1018.000
10.52000 1044.000
10.60000 1012.000
10.68000 971.000
10.76000 962.000
10.84000 925.000
10.92000 978.000
11.00000 931.000
11.08000 918.000
11.16000 919.000
11.24000 907.000
11.32000 895.000
11.40000 883.000
11.48000 841.000
11.56000 886.000
11.64000 859.000
11.72000 914.000
11.80000 894.000
11.88000 896.000
11.96000 935.000
12.04000 939.000
12.12000 904.000
12.20000 923.000
12.28000 866.000
12.36000 879.000
12.44000 856.000
12.52000 964.000
12.60000 933.000
12.68000 854.000
12.76000 943.000
12.84000 881.000
12.92000 932.000
13.00000 857.000
13.08000 953.000
13.16000 977.000
13.24000 995.000
13.32000 1167.000
13.40000 1167.000
13.48000 1127.000
13.56000 1028.000
13.64000 1026.000
13.72000 998.000
13.80000 1043.000
13.88000 979.000
13.96000 983.000
14.04000 1020.000
14.12000 1015.000
14.20000 1132.000
14.28000 1149.000
14.36000 1221.000
14.44000 1257.000
14.52000 1388.000
14.60000 1632.000
14.68000 2044.000
14.76000 3072.000
14.84000 5557.000
14.92000 9626.000
15.00000 8978.000
15.08000 4615.000
15.16000 2409.000
15.24000 1631.000
15.32000 1220.000
15.40000 1166.000
15.48000 1055.000
15.56000 1012.000
15.64000 1055.000
15.72000 973.000
15.80000 946.000
15.88000 978.000
15.96000 922.000
16.04000 949.000
16.12000 931.000
16.20000 926.000
16.28000 1059.000
16.36000 997.000
16.44000 1006.000
16.52000 995.000
16.60000 955.000
16.68000 1005.000
16.76000 989.000
16.84000 1018.000
16.92000 1033.000
17.00000 987.000
17.08000 1028.000
17.16000 982.000
17.24000 1058.000
17.32000 1050.000
17.40000 1089.000
17.48000 1076.000
17.56000 1082.000
17.64000 1115.000
17.72000 1130.000
17.80000 1092.000
17.88000 1123.000
17.96000 1169.000
18.04000 1144.000
18.12000 1176.000
18.20000 1131.000
18.28000 1150.000
18.36000 1161.000
18.44000 1181.000
18.52000 1226.000
18.60000 1193.000
18.68000 1235.000
18.76000 1264.000
18.84000 1217.000
18.92000 1315.000
19.00000 1267.000
19.08000 1314.000
19.16000 1274.000
19.24000 1322.000
19.32000 1305.000
19.40000 1381.000
19.48000 1337.000
19.56000 1349.000
19.64000 1375.000
19.72000 1443.000
19.80000 1462.000
19.88000 1556.000
19.96000 1953.000
20.04000 1942.000
20.12000 1629.000
20.20000 1450.000
20.28000 1461.000
20.36000 1461.000
20.44000 1498.000
20.52000 1483.000
20.60000 1560.000
20.68000 1481.000
20.76000 1470.000
20.84000 1522.000
20.92000 1523.000
21.00000 1505.000
21.08000 1608.000
21.16000 1544.000
21.24000 1590.000
21.32000 1570.000
21.40000 1564.000
21.48000 1575.000
21.56000 1588.000
21.64000 1583.000
21.72000 1594.000
21.80000 1572.000
21.88000 1729.000
21.96000 1673.000
22.04000 1673.000
22.12000 1655.000
22.20000 1646.000
22.28000 1637.000
22.36000 1692.000
22.44000 1635.000
22.52000 1606.000
22.60000 1726.000
22.68000 1677.000
22.76000 1749.000
22.84000 1651.000
22.92000 1682.000
23.00000 1700.000
23.08000 1673.000
23.16000 1576.000
23.24000 1749.000
23.32000 1693.000
23.40000 1638.000
23.48000 1751.000
23.56000 1672.000
23.64000 1678.000
23.72000 1753.000
23.80000 1713.000
23.88000 1764.000
23.96000 1764.000
24.04000 1734.000
24.12000 1670.000
24.20000 1733.000
24.28000 1709.000
24.36000 1780.000
24.44000 1824.000
24.52000 1829.000
24.60000 1866.000
24.68000 1910.000
24.76000 2132.000
24.84000 2499.000
24.92000 3483.000
25.00000 5803.000
25.08000 7513.000
25.16000 5862.000
25.24000 3625.000
25.32000 2681.000
25.40000 2156.000
25.48000 2040.000
25.56000 2098.000
25.64000 2085.000
25.72000 2316.000
25.80000 3576.000
25.88000 3843.000
25.96000 2483.000
26.04000 1961.000
26.12000 1775.000
26.20000 1715.000
26.28000 1646.000
26.36000 1698.000
26.44000 1716.000
26.52000 1617.000
26.60000 1667.000
26.68000 1674.000
26.76000 1658.000
26.84000 1709.000
26.92000 1803.000
27.00000 1640.000
27.08000 1674.000
27.16000 1557.000
27.24000 1627.000
27.32000 1564.000
27.40000 1596.000
27.48000 1565.000
27.56000 1624.000
27.64000 1639.000
27.72000 1573.000
27.80000 1562.000
27.88000 1534.000
27.96000 1544.000
28.04000 1491.000
28.12000 1537.000
28.20000 1570.000
28.28000 1530.000
28.36000 1621.000
28.44000 1530.000
28.52000 1495.000
28.60000 1501.000
28.68000 1543.000
28.76000 1558.000
28.84000 1505.000
28.92000 1477.000
29.00000 1547.000
29.08000 1443.000
29.16000 1473.000
29.24000 1470.000
29.32000 1522.000
29.40000 1478.000
29.48000 1525.000
29.56000 1521.000
29.64000 1454.000
29.72000 1644.000
29.80000 1601.000
29.88000 1827.000
29.96000 2192.000
30.04000 3337.000
30.12000 5767.000
30.20000 6979.000
30.28000 5054.000
30.36000 3029.000
30.44000 2133.000
30.52000 1700.000
30.60000 1554.000
30.68000 1531.000
30.76000 1520.000
30.84000 1343.000
30.92000 1379.000
31.00000 1312.000
31.08000 1344.000
31.16000 1377.000
31.24000 1326.000
31.32000 1363.000
31.40000 1244.000
31.48000 1292.000
31.56000 1247.000
31.64000 1348.000
31.72000 1313.000
31.80000 1273.000
31.88000 1272.000
31.96000 1257.000
32.04000 1271.000
32.12000 1218.000
32.20000 1256.000
32.28000 1277.000
32.36000 1218.000
32.44000 1171.000
32.52000 1179.000
32.60000 1188.000
32.68000 1233.000
32.76000 1232.000
32.84000 1184.000
32.92000 1177.000
33.00000 1198.000
33.08000 1171.000
33.16000 1205.000
33.24000 1189.000
33.32000 1201.000
33.40000 1220.000
33.48000 1105.000
33.56000 1270.000
33.64000 1279.000
33.72000 1499.000
33.80000 1631.000
33.88000 1512.000
33.96000 1323.000
34.04000 1281.000
34.12000 1295.000
34.20000 1296.000
34.28000 1229.000
34.36000 1269.000
34.44000 1203.000
34.52000 1254.000
34.60000 1411.000
34.68000 1397.000
34.76000 1455.000
34.84000 1618.000
34.92000 1759.000
35.00000 2203.000
35.08000 2893.000
35.16000 4564.000
35.24000 8522.000
35.32000 13493.000
35.40000 13009.000
35.48000 8189.000
35.56000 4123.000
35.64000 2329.000
35.72000 1619.000
35.80000 1358.000
35.88000 1174.000
35.96000 1084.000
36.04000 1012.000
36.12000 900.000
36.20000 943.000
36.28000 965.000
36.36000 911.000
36.44000 878.000
36.52000 831.000
36.60000 886.000
36.68000 860.000
36.76000 949.000
36.84000 1032.000
36.92000 912.000
37.00000 828.000
37.08000 795.000
37.16000 813.000
37.24000 767.000
37.32000 735.000
37.40000 772.000
37.48000 804.000
37.56000 741.000
37.64000 820.000
37.72000 794.000
37.80000 727.000
37.88000 766.000
37.96000 716.000
38.04000 729.000
38.12000 711.000
38.20000 722.000
38.28000 718.000
38.36000 765.000
38.44000 752.000
38.52000 713.000
38.60000 728.000
38.68000 724.000
38.76000 797.000
38.84000 752.000
38.92000 740.000
39.00000 708.000
39.08000 733.000
39.16000 705.000
39.24000 688.000
39.32000 683.000
39.40000 735.000
39.48000 801.000
39.56000 731.000
39.64000 762.000
39.72000 702.000
39.80000 763.000
39.88000 816.000
39.96000 823.000
40.04000 842.000
40.12000 921.000
40.20000 1073.000
40.28000 1171.000
40.36000 1632.000
40.44000 3182.000
40.52000 7110.000
40.60000 12315.000
40.68000 11041.000
40.76000 6778.000
40.84000 3158.000
40.92000 1746.000
41.00000 1197.000
41.08000 990.000
41.16000 860.000
41.24000 868.000
41.32000 823.000
41.40000 760.000
41.48000 767.000
41.56000 753.000
41.64000 700.000
41.72000 730.000
41.80000 658.000
41.88000 691.000
41.96000 723.000
42.04000 680.000
42.12000 701.000
42.20000 680.000
42.28000 673.000
42.36000 670.000
42.44000 699.000
42.52000 639.000
42.60000 702.000
42.68000 700.000
42.76000 706.000
42.84000 691.000
42.92000 648.000
43.00000 676.000
43.08000 672.000
43.16000 626.000
43.24000 632.000
43.32000 699.000
43.40000 660.000
43.48000 653.000
43.56000 650.000
43.64000 663.000
43.72000 653.000
43.80000 618.000
43.88000 698.000
43.96000 645.000
44.04000 688.000
44.12000 652.000
44.20000 648.000
44.28000 643.000
44.36000 679.000
44.44000 677.000
44.52000 642.000
44.60000 647.000
44.68000 644.000
44.76000 654.000
44.84000 682.000
44.92000 652.000
45.00000 687.000
45.08000 669.000
45.16000 649.000
45.24000 636.000
45.32000 654.000
45.40000 638.000
45.48000 630.000
45.56000 718.000
45.64000 683.000
45.72000 749.000
45.80000 775.000
45.88000 935.000
45.96000 1046.000
46.04000 998.000
46.12000 864.000
46.20000 716.000
46.28000 696.000
46.36000 648.000
46.44000 672.000
46.52000 634.000
46.60000 634.000
46.68000 640.000
46.76000 651.000
46.84000 652.000
46.92000 605.000
47.00000 599.000
47.08000 591.000
47.16000 622.000
47.24000 619.000
47.32000 607.000
47.40000 563.000
47.48000 575.000
47.56000 577.000
47.64000 660.000
47.72000 586.000
47.80000 623.000
47.88000 574.000
47.96000 635.000
48.04000 593.000
48.12000 603.000
48.20000 563.000
48.28000 583.000
48.36000 588.000
48.44000 625.000
48.52000 611.000
48.60000 586.000
48.68000 570.000
48.76000 596.000
48.84000 597.000
48.92000 542.000
49.00000 568.000
49.08000 615.000
49.16000 561.000
49.24000 574.000
49.32000 579.000
49.40000 552.000
49.48000 547.000
49.56000 603.000
49.64000 554.000
49.72000 541.000
49.80000 566.000
49.88000 584.000
49.96000 566.000
50.04000 581.000
50.12000 580.000
50.20000 566.000
50.28000 584.000
50.36000 565.000
50.44000 561.000
50.52000 554.000
50.60000 537.000
50.68000 593.000
50.76000 560.000
50.84000 538.000
50.92000 531.000
51.00000 545.000
51.08000 546.000
51.16000 546.000
51.24000 581.000
51.32000 559.000
51.40000 579.000
51.48000 630.000
51.56000 578.000
51.64000 513.000
51.72000 570.000
51.80000 568.000
51.88000 559.000
51.96000 569.000
52.04000 524.000
52.12000 523.000
52.20000 556.000
52.28000 534.000
52.36000 579.000
52.44000 538.000
52.52000 555.000
52.60000 531.000
52.68000 560.000
52.76000 495.000
52.84000 574.000
52.92000 554.000
53.00000 575.000
53.08000 699.000
53.16000 671.000
53.24000 607.000
53.32000 629.000
53.40000 568.000
53.48000 565.000
53.56000 528.000
53.64000 565.000
53.72000 551.000
53.80000 557.000
53.88000 546.000
53.96000 522.000
54.04000 579.000
54.12000 516.000
54.20000 582.000
54.28000 517.000
54.36000 572.000
54.44000 538.000
54.52000 577.000
54.60000 511.000
54.68000 553.000
54.76000 544.000
54.84000 550.000
54.92000 545.000
55.00000 553.000
55.08000 559.000
55.16000 533.000
55.24000 576.000
55.32000 563.000
55.40000 526.000
55.48000 563.000
55.56000 584.000
55.64000 560.000
55.72000 524.000
55.80000 535.000
55.88000 585.000
55.96000 596.000
56.04000 522.000
56.12000 510.000
56.20000 545.000
56.28000 580.000
56.36000 577.000
56.44000 585.000
56.52000 597.000
56.60000 601.000
56.68000 685.000
56.76000 776.000
56.84000 933.000
56.92000 1244.000
57.00000 1398.000
57.08000 1250.000
57.16000 1085.000
57.24000 814.000
57.32000 663.000
57.40000 643.000
57.48000 614.000
57.56000 583.000
57.64000 592.000
57.72000 579.000
57.80000 510.000
57.88000 559.000
57.96000 556.000
58.04000 514.000
58.12000 513.000
58.20000 545.000
58.28000 570.000
58.36000 542.000
58.44000 555.000
58.52000 553.000
58.60000 568.000
58.68000 570.000
58.76000 535.000
58.84000 531.000
58.92000 581.000
59.00000 568.000
59.08000 533.000
59.16000 549.000
59.24000 516.000
59.32000 511.000
59.40000 492.000
59.48000 560.000
59.56000 550.000
59.64000 532.000
59.72000 524.000
59.80000 561.000
59.88000 529.000
59.96000 574.000
60.04000 569.000
60.12000 566.000
60.20000 528.000
60.28000 542.000
60.36000 583.000
60.44000 529.000
60.52000 587.000
60.60000 570.000
60.68000 536.000
60.76000 520.000
60.84000 540.000
60.92000 554.000
61.00000 510.000
61.08000 575.000
61.16000 534.000
61.24000 513.000
61.32000 524.000
61.40000 532.000
61.48000 532.000
61.56000 537.000
61.64000 557.000
61.72000 507.000
61.80000 527.000
61.88000 513.000
61.96000 535.000
62.04000 556.000
62.12000 572.000
62.20000 561.000
62.28000 590.000
62.36000 546.000
62.44000 553.000
62.52000 613.000
62.60000 697.000
62.68000 802.000
62.76000 800.000
62.84000 756.000
62.92000 709.000
63.00000 651.000
63.08000 562.000
63.16000 533.000
63.24000 579.000
63.32000 533.000
63.40000 575.000
63.48000 541.000
63.56000 563.000
63.64000 494.000
63.72000 554.000
63.80000 541.000
63.88000 520.000
63.96000 493.000
64.04000 551.000
64.12000 541.000
64.20000 541.000
64.28000 563.000
64.36000 536.000
64.44000 525.000
64.52000 545.000
64.60000 491.000
64.68000 526.000
64.76000 527.000
64.84000 483.000
64.92000 536.000
65.00000 543.000
65.08000 487.000
65.16000 526.000
65.24000 477.000
65.32000 518.000
65.40000 501.000
65.48000 517.000
65.56000 479.000
65.64000 484.000
65.72000 535.000
65.80000 505.000
65.88000 491.000
65.96000 526.000
66.04000 522.000
66.12000 497.000
66.20000 533.000
66.28000 450.000
66.36000 517.000
66.44000 484.000
66.52000 485.000
66.60000 484.000
66.68000 461.000
66.76000 497.000
66.84000 466.000
66.92000 473.000
67.00000 474.000
67.08000 502.000
67.16000 501.000
67.24000 450.000
67.32000 474.000
67.40000 508.000
67.48000 497.000
67.56000 489.000
67.64000 500.000
67.72000 490.000
67.80000 498.000
67.88000 456.000
67.96000 477.000
68.04000 468.000
68.12000 456.000
68.20000 472.000
68.28000 489.000
68.36000 453.000
68.44000 504.000
68.52000 572.000
68.60000 545.000
68.68000 604.000
68.76000 536.000
68.84000 483.000
68.92000 504.000
69.00000 454.000
69.08000 487.000
69.16000 476.000
69.24000 490.000
69.32000 477.000
69.40000 465.000
69.48000 441.000
69.56000 460.000
69.64000 494.000
69.72000 473.000
69.80000 473.000
69.88000 396.000
69.92000 421.000