File: XRD/43.xy
5.00000 2717.000
5.04000 2727.000
5.08000 2796.000
5.12000 2687.000
5.16000 2709.000
5.20000 2773.000
5.24000 2642.000
5.28000 2667.000
5.32000 2556.000
5.36000 2712.000
5.40000 2591.000
5.44000 2634.000
5.48000 2555.000
5.52000 2553.000
5.56000 2441.000
5.60000 2553.000
5.64000 2461.000
5.68000 2422.000
5.72000 2425.000
5.76000 2400.000
5.80000 2440.000
5.84000 2387.000
5.88000 2342.000
5.92000 2348.000
5.96000 2331.000
6.00000 2324.000
6.04000 2290.000
6.08000 2291.000
6.12000 2285.000
6.16000 2252.000
6.20000 2247.000
6.24000 2357.000
6.28000 2202.000
6.32000 2297.000
6.36000 2174.000
6.40000 2191.000
6.44000 2157.000
6.48000 2155.000
6.52000 2160.000
6.56000 2138.000
6.60000 2121.000
6.64000 2089.000
6.68000 2068.000
6.72000 2094.000
6.76000 2127.000
6.80000 2085.000
6.84000 2073.000
6.88000 2075.000
6.92000 2048.000
6.96000 2019.000
7.00000 2004.000
7.04000 2019.000
7.08000 2013.000
7.12000 1952.000
7.16000 1937.000
7.20000 2022.000
7.24000 2004.000
7.28000 1947.000
7.32000 1953.000
7.36000 1939.000
7.40000 1915.000
7.44000 1901.000
7.48000 1977.000
7.52000 1863.000
7.56000 2016.000
7.60000 1894.000
7.64000 1975.000
7.68000 1985.000
7.72000 1977.000
7.76000 1906.000
7.80000 1907.000
7.84000 1937.000
7.88000 1906.000
7.92000 1974.000
7.96000 1996.000
8.00000 2083.000
8.04000 2192.000
8.08000 2258.000
8.12000 2704.000
8.16000 3501.000
8.20000 5142.000
8.24000 7402.000
8.28000 9577.000
8.32000 11923.000
8.36000 13470.000
8.40000 14378.000
8.44000 14198.000
8.48000 13129.000
8.52000 12174.000
8.56000 11559.000
8.60000 12629.000
8.64000 14352.000
8.68000 15524.000
8.72000 17226.000
8.76000 18002.000
8.80000 18065.000
8.84000 16634.000
8.88000 14627.000
8.92000 11819.000
8.96000 9117.000
9.00000 6568.000
9.04000 4191.000
9.08000 2981.000
9.12000 2347.000
9.16000 1975.000
9.20000 1945.000
9.24000 1784.000
9.28000 1731.000
9.32000 1654.000
9.36000 1648.000
9.40000 1606.000
9.44000 1583.000
9.48000 1636.000
9.52000 1562.000
9.56000 1556.000
9.60000 1526.000
9.64000 1534.000
9.68000 1608.000
9.72000 1529.000
9.76000 1485.000
9.80000 1514.000
9.84000 1547.000
9.88000 1430.000
9.92000 1463.000
9.96000 1495.000
10.00000 1430.000
10.04000 1428.000
10.08000 1476.000
10.12000 1485.000
10.16000 1396.000
10.20000 1366.000
10.24000 1436.000
10.28000 1376.000
10.32000 1425.000
10.36000 1378.000
10.40000 1367.000
10.44000 1460.000
10.48000 1431.000
10.52000 1375.000
10.56000 1417.000
10.60000 1448.000
10.64000 1381.000
10.68000 1352.000
10.72000 1330.000
10.76000 1373.000
10.80000 1298.000
10.84000 1367.000
10.88000 1369.000
10.92000 1374.000
10.96000 1322.000
11.00000 1391.000
11.04000 1317.000
11.08000 1383.000
11.12000 1420.000
11.16000 1280.000
11.20000 1327.000
11.24000 1358.000
11.28000 1295.000
11.32000 1287.000
11.36000 1320.000
11.40000 1293.000
11.44000 1307.000
11.48000 1363.000
11.52000 1333.000
11.56000 1346.000
11.60000 1326.000
11.64000 1306.000
11.68000 1356.000
11.72000 1424.000
11.76000 1470.000
11.80000 1464.000
11.84000 1463.000
11.88000 1542.000
11.92000 1651.000
11.96000 1531.000
12.00000 1497.000
12.04000 1552.000
12.08000 1380.000
12.12000 1372.000
12.16000 1369.000
12.20000 1262.000
12.24000 1269.000
12.28000 1328.000
12.32000 1249.000
12.36000 1231.000
12.40000 1276.000
12.44000 1279.000
12.48000 1244.000
12.52000 1211.000
12.56000 1299.000
12.60000 1265.000
12.64000 1146.000
12.68000 1233.000
12.72000 1214.000
12.76000 1254.000
12.80000 1270.000
12.84000 1257.000
12.88000 1272.000
12.92000 1217.000
12.96000 1232.000
13.00000 1220.000
13.04000 1207.000
13.08000 1330.000
13.12000 1298.000
13.16000 1426.000
13.20000 1321.000
13.24000 1382.000
13.28000 1311.000
13.32000 1338.000
13.36000 1252.000
13.40000 1182.000
13.44000 1273.000
13.48000 1288.000
13.52000 1244.000
13.56000 1225.000
13.60000 1230.000
13.64000 1192.000
13.68000 1206.000
13.72000 1149.000
13.76000 1218.000
13.80000 1171.000
13.84000 1295.000
13.88000 1248.000
13.92000 1225.000
13.96000 1232.000
14.00000 1198.000
14.04000 1195.000
14.08000 1317.000
14.12000 1344.000
14.16000 1352.000
14.20000 1383.000
14.24000 1409.000
14.28000 1405.000
14.32000 1384.000
14.36000 1389.000
14.40000 1312.000
14.44000 1346.000
14.48000 1329.000
14.52000 1295.000
14.56000 1259.000
14.60000 1260.000
14.64000 1272.000
14.68000 1264.000
14.72000 1304.000
14.76000 1244.000
14.80000 1321.000
14.84000 1416.000
14.88000 1467.000
14.92000 1505.000
14.96000 1553.000
15.00000 1588.000
15.04000 1720.000
15.08000 1682.000
15.12000 1640.000
15.16000 1507.000
15.20000 1520.000
15.24000 1451.000
15.28000 1366.000
15.32000 1333.000
15.36000 1336.000
15.40000 1288.000
15.44000 1260.000
15.48000 1256.000
15.52000 1288.000
15.56000 1223.000
15.60000 1312.000
15.64000 1238.000
15.68000 1253.000
15.72000 1294.000
15.76000 1280.000
15.80000 1312.000
15.84000 1320.000
15.88000 1316.000
15.92000 1383.000
15.96000 1271.000
16.00000 1329.000
16.04000 1370.000
16.08000 1334.000
16.12000 1311.000
16.16000 1335.000
16.20000 1347.000
16.24000 1402.000
16.28000 1393.000
16.32000 1405.000
16.36000 1363.000
16.40000 1417.000
16.44000 1438.000
16.48000 1498.000
16.52000 1659.000
16.56000 1625.000
16.60000 1926.000
16.64000 2178.000
16.68000 2874.000
16.72000 4262.000
16.76000 6153.000
16.80000 8060.000
16.84000 9698.000
16.88000 11044.000
16.92000 11683.000
16.96000 11557.000
17.00000 10800.000
17.04000 9269.000
17.08000 7437.000
17.12000 5824.000
17.16000 4332.000
17.20000 3158.000
17.24000 2596.000
17.28000 2413.000
17.32000 2493.000
17.36000 2734.000
17.40000 3526.000
17.44000 4910.000
17.48000 8129.000
17.52000 13476.000
17.56000 18678.000
17.60000 23252.000
17.64000 26023.000
17.68000 27717.000
17.72000 27845.000
17.76000 25521.000
17.80000 22291.000
17.84000 17948.000
17.88000 13589.000
17.92000 9363.000
17.96000 6057.000
18.00000 4061.000
18.04000 2843.000
18.08000 2342.000
18.12000 2052.000
18.16000 1811.000
18.20000 1757.000
18.24000 1723.000
18.28000 1621.000
18.32000 1583.000
18.36000 1525.000
18.40000 1565.000
18.44000 1547.000
18.48000 1503.000
18.52000 1527.000
18.56000 1537.000
18.60000 1544.000
18.64000 1454.000
18.68000 1443.000
18.72000 1460.000
18.76000 1474.000
18.80000 1508.000
18.84000 1500.000
18.88000 1452.000
18.92000 1465.000
18.96000 1536.000
19.00000 1537.000
19.04000 1562.000
19.08000 1484.000
19.12000 1496.000
19.16000 1509.000
19.20000 1515.000
19.24000 1602.000
19.28000 1524.000
19.32000 1610.000
19.36000 1524.000
19.40000 1549.000
19.44000 1537.000
19.48000 1589.000
19.52000 1545.000
19.56000 1569.000
19.60000 1471.000
19.64000 1492.000
19.68000 1555.000
19.72000 1505.000
19.76000 1552.000
19.80000 1526.000
19.84000 1498.000
19.88000 1542.000
19.92000 1558.000
19.96000 1579.000
20.00000 1555.000
20.04000 1576.000
20.08000 1546.000
20.12000 1645.000
20.16000 1602.000
20.20000 1711.000
20.24000 1649.000
20.28000 1654.000
20.32000 1655.000
20.36000 1669.000
20.40000 1662.000
20.44000 1673.000
20.48000 1576.000
20.52000 1616.000
20.56000 1619.000
20.60000 1655.000
20.64000 1636.000
20.68000 1636.000
20.72000 1641.000
20.76000 1633.000
20.80000 1675.000
20.84000 1687.000
20.88000 1675.000
20.92000 1651.000
20.96000 1667.000
21.00000 1647.000
21.04000 1671.000
21.08000 1760.000
21.12000 1766.000
21.16000 1753.000
21.20000 1754.000
21.24000 1756.000
21.28000 1768.000
21.32000 1777.000
21.36000 1768.000
21.40000 1681.000
21.44000 1796.000
21.48000 1879.000
21.52000 1878.000
21.56000 1871.000
21.60000 2024.000
21.64000 1951.000
21.68000 2023.000
21.72000 2138.000
21.76000 2047.000
21.80000 2186.000
21.84000 2145.000
21.88000 2071.000
21.92000 2078.000
21.96000 1949.000
22.00000 1830.000
22.04000 1901.000
22.08000 1824.000
22.12000 1888.000
22.16000 1847.000
22.20000 1807.000
22.24000 1853.000
22.28000 1792.000
22.32000 1786.000
22.36000 1752.000
22.40000 1815.000
22.44000 1832.000
22.48000 1797.000
22.52000 1817.000
22.56000 1843.000
22.60000 1830.000
22.64000 1826.000
22.68000 1777.000
22.72000 1840.000
22.76000 1874.000
22.80000 1841.000
22.84000 1900.000
22.88000 1902.000
22.92000 1796.000
22.96000 1899.000
23.00000 1928.000
23.04000 1951.000
23.08000 1940.000
23.12000 1811.000
23.16000 1823.000
23.20000 1880.000
23.24000 1908.000
23.28000 1814.000
23.32000 1843.000
23.36000 1878.000
23.40000 1871.000
23.44000 1832.000
23.48000 1896.000
23.52000 1932.000
23.56000 1886.000
23.60000 1802.000
23.64000 1895.000
23.68000 1863.000
23.72000 1791.000
23.76000 1914.000
23.80000 1840.000
23.84000 1959.000
23.88000 1926.000
23.92000 1928.000
23.96000 2018.000
24.00000 1973.000
24.04000 1959.000
24.08000 2034.000
24.12000 1982.000
24.16000 1925.000
24.20000 1882.000
24.24000 1943.000
24.28000 1900.000
24.32000 1869.000
24.36000 1963.000
24.40000 1959.000
24.44000 1929.000
24.48000 1993.000
24.52000 1918.000
24.56000 1912.000
24.60000 1879.000
24.64000 1988.000
24.68000 1910.000
24.72000 1962.000
24.76000 1901.000
24.80000 1882.000
24.84000 1924.000
24.88000 2003.000
24.92000 1922.000
24.96000 1975.000
25.00000 1911.000
25.04000 2092.000
25.08000 2111.000
25.12000 2273.000
25.16000 2338.000
25.20000 2508.000
25.24000 2883.000
25.28000 3492.000
25.32000 4585.000
25.36000 6220.000
25.40000 8715.000
25.44000 10701.000
25.48000 12825.000
25.52000 14035.000
25.56000 15123.000
25.60000 14588.000
25.64000 13218.000
25.68000 11408.000
25.72000 9337.000
25.76000 7036.000
25.80000 5122.000
25.84000 3821.000
25.88000 3110.000
25.92000 2570.000
25.96000 2274.000
26.00000 2131.000
26.04000 2044.000
26.08000 1976.000
26.12000 1921.000
26.16000 1942.000
26.20000 1999.000
26.24000 1810.000
26.28000 2004.000
26.32000 2004.000
26.36000 2064.000
26.40000 2247.000
26.44000 2328.000
26.48000 2762.000
26.52000 3665.000
26.56000 4755.000
26.60000 5934.000
26.64000 7091.000
26.68000 7788.000
26.72000 8103.000
26.76000 8019.000
26.80000 7600.000
26.84000 6845.000
26.88000 5816.000
26.92000 4775.000
26.96000 3823.000
27.00000 3116.000
27.04000 2443.000
27.08000 2079.000
27.12000 1886.000
27.16000 1939.000
27.20000 1861.000
27.24000 1860.000
27.28000 1749.000
27.32000 1767.000
27.36000 1716.000
27.40000 1729.000
27.44000 1677.000
27.48000 1674.000
27.52000 1672.000
27.56000 1663.000
27.60000 1729.000
27.64000 1781.000
27.68000 1683.000
27.72000 1594.000
27.76000 1693.000
27.80000 1764.000
27.84000 1682.000
27.88000 1715.000
27.92000 1754.000
27.96000 1724.000
28.00000 1659.000
28.04000 1614.000
28.08000 1656.000
28.12000 1714.000
28.16000 1637.000
28.20000 1608.000
28.24000 1594.000
28.28000 1645.000
28.32000 1534.000
28.36000 1520.000
28.40000 1563.000
28.44000 1520.000
28.48000 1678.000
28.52000 1618.000
28.56000 1598.000
28.60000 1553.000
28.64000 1598.000
28.68000 1653.000
28.72000 1620.000
28.76000 1696.000
28.80000 1671.000
28.84000 1688.000
28.88000 1589.000
28.92000 1608.000
28.96000 1521.000
29.00000 1537.000
29.04000 1630.000
29.08000 1539.000
29.12000 1550.000
29.16000 1571.000
29.20000 1550.000
29.24000 1536.000
29.28000 1563.000
29.32000 1520.000
29.36000 1596.000
29.40000 1628.000
29.44000 1620.000
29.48000 1563.000
29.52000 1491.000
29.56000 1536.000
29.60000 1478.000
29.64000 1510.000
29.68000 1505.000
29.72000 1467.000
29.76000 1504.000
29.80000 1511.000
29.84000 1536.000
29.88000 1516.000
29.92000 1598.000
29.96000 1439.000
30.00000 1458.000
30.04000 1483.000
30.08000 1483.000
30.12000 1519.000
30.16000 1493.000
30.20000 1496.000
30.24000 1553.000
30.28000 1566.000
30.32000 1602.000
30.36000 1673.000
30.40000 1582.000
30.44000 1663.000
30.48000 1744.000
30.52000 1628.000
30.56000 1687.000
30.60000 1682.000
30.64000 1781.000
30.68000 1774.000
30.72000 1650.000
30.76000 1699.000
30.80000 1719.000
30.84000 1604.000
30.88000 1643.000
30.92000 1501.000
30.96000 1575.000
31.00000 1484.000
31.04000 1421.000
31.08000 1487.000
31.12000 1407.000
31.16000 1399.000
31.20000 1463.000
31.24000 1446.000
31.28000 1483.000
31.32000 1449.000
31.36000 1469.000
31.40000 1406.000
31.44000 1313.000
31.48000 1404.000
31.52000 1401.000
31.56000 1365.000
31.60000 1381.000
31.64000 1370.000
31.68000 1336.000
31.72000 1309.000
31.76000 1329.000
31.80000 1383.000
31.84000 1312.000
31.88000 1275.000
31.92000 1287.000
31.96000 1328.000
32.00000 1310.000
32.04000 1227.000
32.08000 1269.000
32.12000 1279.000
32.16000 1378.000
32.20000 1252.000
32.24000 1281.000
32.28000 1217.000
32.32000 1269.000
32.36000 1294.000
32.40000 1244.000
32.44000 1241.000
32.48000 1339.000
32.52000 1262.000
32.56000 1241.000
32.60000 1251.000
32.64000 1307.000
32.68000 1305.000
32.72000 1264.000
32.76000 1213.000
32.80000 1225.000
32.84000 1305.000
32.88000 1285.000
32.92000 1219.000
32.96000 1252.000
33.00000 1262.000
33.04000 1272.000
33.08000 1247.000
33.12000 1211.000
33.16000 1209.000
33.20000 1206.000
33.24000 1259.000
33.28000 1188.000
33.32000 1200.000
33.36000 1196.000
33.40000 1215.000
33.44000 1151.000
33.48000 1283.000
33.52000 1204.000
33.56000 1204.000
33.60000 1264.000
33.64000 1227.000
33.68000 1246.000
33.72000 1268.000
33.76000 1254.000
33.80000 1281.000
33.84000 1271.000
33.88000 1292.000
33.92000 1335.000
33.96000 1238.000
34.00000 1292.000
34.04000 1248.000
34.08000 1164.000
34.12000 1324.000
34.16000 1286.000
34.20000 1278.000
34.24000 1268.000
34.28000 1336.000
34.32000 1353.000
34.36000 1337.000
34.40000 1308.000
34.44000 1256.000
34.48000 1228.000
34.52000 1219.000
34.56000 1146.000
34.60000 1125.000
34.64000 1077.000
34.68000 1101.000
34.72000 1079.000
34.76000 1094.000
34.80000 1022.000
34.84000 1060.000
34.88000 1055.000
34.92000 1041.000
34.96000 1059.000
35.00000 1009.000
35.04000 1041.000
35.08000 1028.000
35.12000 971.000
35.16000 1018.000
35.20000 978.000
35.24000 1017.000
35.28000 989.000
35.32000 1049.000
35.36000 1015.000
35.40000 983.000
35.44000 1057.000
35.48000 1011.000
35.52000 969.000
35.56000 1011.000
35.60000 1050.000
35.64000 1011.000
35.68000 1055.000
35.72000 1185.000
35.76000 1313.000
35.80000 1427.000
35.84000 1561.000
35.88000 1597.000
35.92000 1757.000
35.96000 1685.000
36.00000 1689.000
36.04000 1604.000
36.08000 1485.000
36.12000 1339.000
36.16000 1140.000
36.20000 1115.000
36.24000 1037.000
36.28000 1005.000
36.32000 935.000
36.36000 949.000
36.40000 953.000
36.44000 937.000
36.48000 971.000
36.52000 915.000
36.56000 934.000
36.60000 954.000
36.64000 919.000
36.68000 946.000
36.72000 914.000
36.76000 907.000
36.80000 897.000
36.84000 947.000
36.88000 917.000
36.92000 885.000
36.96000 891.000
37.00000 914.000
37.04000 930.000
37.08000 843.000
37.12000 850.000
37.16000 892.000
37.20000 894.000
37.24000 868.000
37.28000 811.000
37.32000 850.000
37.36000 833.000
37.40000 822.000
37.44000 803.000
37.48000 798.000
37.52000 846.000
37.56000 815.000
37.60000 782.000
37.64000 793.000
37.68000 860.000
37.72000 822.000
37.76000 821.000
37.80000 811.000
37.84000 795.000
37.88000 846.000
37.92000 808.000
37.96000 799.000
38.00000 854.000
38.04000 795.000
38.08000 813.000
38.12000 863.000
38.16000 861.000
38.20000 825.000
38.24000 838.000
38.28000 800.000
38.32000 827.000
38.36000 881.000
38.40000 864.000
38.44000 869.000
38.48000 863.000
38.52000 867.000
38.56000 942.000
38.60000 910.000
38.64000 950.000
38.68000 962.000
38.72000 987.000
38.76000 997.000
38.80000 942.000
38.84000 948.000
38.88000 1008.000
38.92000 1016.000
38.96000 969.000
39.00000 910.000
39.04000 861.000
39.08000 867.000
39.12000 836.000
39.16000 794.000
39.20000 773.000
39.24000 753.000
39.28000 847.000
39.32000 811.000
39.36000 781.000
39.40000 783.000
39.44000 750.000
39.48000 758.000
39.52000 718.000
39.56000 743.000
39.60000 739.000
39.64000 746.000
39.68000 765.000
39.72000 742.000
39.76000 765.000
39.80000 705.000
39.84000 780.000
39.88000 748.000
39.92000 739.000
39.96000 761.000
40.00000 764.000
40.04000 783.000
40.08000 718.000
40.12000 719.000
40.16000 749.000
40.20000 713.000
40.24000 756.000
40.28000 777.000
40.32000 752.000
40.36000 784.000
40.40000 716.000
40.44000 802.000
40.48000 732.000
40.52000 828.000
40.56000 796.000
40.60000 815.000
40.64000 790.000
40.68000 843.000
40.72000 813.000
40.76000 818.000
40.80000 762.000
40.84000 777.000
40.88000 778.000
40.92000 700.000
40.96000 760.000
41.00000 712.000
41.04000 731.000
41.08000 699.000
41.12000 732.000
41.16000 686.000
41.20000 771.000
41.24000 684.000
41.28000 784.000
41.32000 733.000
41.36000 729.000
41.40000 737.000
41.44000 717.000
41.48000 740.000
41.52000 733.000
41.56000 710.000
41.60000 798.000
41.64000 739.000
41.68000 710.000
41.72000 759.000
41.76000 788.000
41.80000 747.000
41.84000 732.000
41.88000 761.000
41.92000 781.000
41.96000 727.000
42.00000 686.000
42.04000 777.000
42.08000 754.000
42.12000 772.000
42.16000 735.000
42.20000 758.000
42.24000 746.000
42.28000 780.000
42.32000 746.000
42.36000 732.000
42.40000 764.000
42.44000 784.000
42.48000 744.000
42.52000 775.000
42.56000 765.000
42.60000 741.000
42.64000 817.000
42.68000 777.000
42.72000 787.000
42.76000 697.000
42.80000 822.000
42.84000 748.000
42.88000 787.000
42.92000 807.000
42.96000 801.000
43.00000 863.000
43.04000 915.000
43.08000 999.000
43.12000 1248.000
43.16000 1411.000
43.20000 1699.000
43.24000 1988.000
43.28000 2195.000
43.32000 2348.000
43.36000 2385.000
43.40000 2326.000
43.44000 2156.000
43.48000 1962.000
43.52000 1665.000
43.56000 1400.000
43.60000 1260.000
43.64000 1067.000
43.68000 908.000
43.72000 840.000
43.76000 853.000
43.80000 791.000
43.84000 816.000
43.88000 778.000
43.92000 731.000
43.96000 759.000
44.00000 790.000
44.04000 702.000
44.08000 772.000
44.12000 736.000
44.16000 782.000
44.20000 779.000
44.24000 746.000
44.28000 820.000
44.32000 811.000
44.36000 833.000
44.40000 754.000
44.44000 789.000
44.48000 869.000
44.52000 830.000
44.56000 786.000
44.60000 832.000
44.64000 804.000
44.68000 797.000
44.72000 721.000
44.76000 761.000
44.80000 751.000
44.84000 687.000
44.88000 761.000
44.92000 750.000
44.96000 741.000
45.00000 769.000
45.04000 788.000
45.08000 783.000
45.12000 855.000
45.16000 952.000
45.20000 1123.000
45.24000 1344.000
45.28000 1562.000
45.32000 1670.000
45.36000 1778.000
45.40000 1827.000
45.44000 1861.000
45.48000 1742.000
45.52000 1563.000
45.56000 1488.000
45.60000 1300.000
45.64000 1130.000
45.68000 1055.000
45.72000 884.000
45.76000 854.000
45.80000 835.000
45.84000 760.000
45.88000 763.000
45.92000 753.000
45.96000 719.000
46.00000 687.000
46.04000 725.000
46.08000 721.000
46.12000 749.000
46.16000 671.000
46.20000 753.000
46.24000 724.000
46.28000 708.000
46.32000 701.000
46.36000 675.000
46.40000 696.000
46.44000 711.000
46.48000 694.000
46.52000 705.000
46.56000 675.000
46.60000 726.000
46.64000 688.000
46.68000 716.000
46.72000 665.000
46.76000 645.000
46.80000 676.000
46.84000 672.000
46.88000 639.000
46.92000 694.000
46.96000 636.000
47.00000 679.000
47.04000 679.000
47.08000 654.000
47.12000 708.000
47.16000 642.000
47.20000 669.000
47.24000 690.000
47.28000 643.000
47.32000 677.000
47.36000 649.000
47.40000 685.000
47.44000 617.000
47.48000 689.000
47.52000 645.000
47.56000 644.000
47.60000 662.000
47.64000 678.000
47.68000 667.000
47.72000 645.000
47.76000 601.000
47.80000 656.000
47.84000 600.000
47.88000 658.000
47.92000 656.000
47.96000 645.000
48.00000 704.000
48.04000 659.000
48.08000 616.000
48.12000 677.000
48.16000 651.000
48.20000 654.000
48.24000 665.000
48.28000 658.000
48.32000 657.000
48.36000 649.000
48.40000 645.000
48.44000 626.000
48.48000 595.000
48.52000 651.000
48.56000 658.000
48.60000 666.000
48.64000 614.000
48.68000 614.000
48.72000 640.000
48.76000 623.000
48.80000 609.000
48.84000 695.000
48.88000 647.000
48.92000 626.000
48.96000 595.000
49.00000 618.000
49.04000 641.000
49.08000 609.000
49.12000 662.000
49.16000 623.000
49.20000 615.000
49.24000 649.000
49.28000 643.000
49.32000 626.000
49.36000 609.000
49.40000 635.000
49.44000 652.000
49.48000 625.000
49.52000 627.000
49.56000 662.000
49.60000 635.000
49.64000 625.000
49.68000 616.000
49.72000 574.000
49.76000 587.000
49.80000 608.000
49.84000 609.000
49.88000 614.000
49.92000 652.000
49.96000 641.000
50.00000 660.000
50.04000 583.000
50.08000 588.000
50.12000 598.000
50.16000 619.000
50.20000 613.000
50.24000 589.000
50.28000 637.000
50.32000 609.000
50.36000 633.000
50.40000 599.000
50.44000 649.000
50.48000 631.000
50.52000 612.000
50.56000 590.000
50.60000 615.000
50.64000 556.000
50.68000 627.000
50.72000 632.000
50.76000 639.000
50.80000 627.000
50.84000 659.000
50.88000 580.000
50.92000 607.000
50.96000 633.000
51.00000 629.000
51.04000 576.000
51.08000 586.000
51.12000 635.000
51.16000 608.000
51.20000 585.000
51.24000 627.000
51.28000 621.000
51.32000 595.000
51.36000 620.000
51.40000 605.000
51.44000 620.000
51.48000 587.000
51.52000 612.000
51.56000 635.000
51.60000 638.000
51.64000 619.000
51.68000 631.000
51.72000 602.000
51.76000 644.000
51.80000 614.000
51.84000 599.000
51.88000 652.000
51.92000 676.000
51.96000 621.000
52.00000 602.000
52.04000 642.000
52.08000 610.000
52.12000 661.000
52.16000 632.000
52.20000 672.000
52.24000 621.000
52.28000 726.000
52.32000 760.000
52.36000 844.000
52.40000 1006.000
52.44000 1169.000
52.48000 1401.000
52.52000 1608.000
52.56000 1815.000
52.60000 1905.000
52.64000 1986.000
52.68000 1838.000
52.72000 1782.000
52.76000 1670.000
52.80000 1441.000
52.84000 1259.000
52.88000 1054.000
52.92000 887.000
52.96000 871.000
53.00000 737.000
53.04000 667.000
53.08000 659.000
53.12000 663.000
53.16000 647.000
53.20000 647.000
53.24000 614.000
53.28000 585.000
53.32000 599.000
53.36000 603.000
53.40000 622.000
53.44000 629.000
53.48000 643.000
53.52000 601.000
53.56000 614.000
53.60000 577.000
53.64000 575.000
53.68000 598.000
53.72000 622.000
53.76000 582.000
53.80000 600.000
53.84000 588.000
53.88000 663.000
53.92000 608.000
53.96000 575.000
54.00000 570.000
54.04000 585.000
54.08000 610.000
54.12000 661.000
54.16000 594.000
54.20000 593.000
54.24000 576.000
54.28000 655.000
54.32000 674.000
54.36000 634.000
54.40000 636.000
54.44000 616.000
54.48000 663.000
54.52000 627.000
54.56000 617.000
54.60000 619.000
54.64000 573.000
54.68000 608.000
54.72000 615.000
54.76000 613.000
54.80000 623.000
54.84000 673.000
54.88000 594.000
54.92000 558.000
54.96000 633.000
55.00000 658.000
55.04000 695.000
55.08000 640.000
55.12000 687.000
55.16000 689.000
55.20000 642.000
55.24000 689.000
55.28000 693.000
55.32000 661.000
55.36000 649.000
55.40000 618.000
55.44000 613.000
55.48000 623.000
55.52000 629.000
55.56000 637.000
55.60000 539.000
55.64000 607.000
55.68000 542.000
55.72000 587.000
55.76000 638.000
55.80000 613.000
55.84000 619.000
55.88000 573.000
55.92000 602.000
55.96000 610.000
56.00000 568.000
56.04000 617.000
56.08000 612.000
56.12000 583.000
56.16000 598.000
56.20000 614.000
56.24000 607.000
56.28000 626.000
56.32000 605.000
56.36000 608.000
56.40000 566.000
56.44000 576.000
56.48000 612.000
56.52000 649.000
56.56000 592.000
56.60000 590.000
56.64000 541.000
56.68000 602.000
56.72000 589.000
56.76000 535.000
56.80000 632.000
56.84000 545.000
56.88000 609.000
56.92000 570.000
56.96000 623.000
57.00000 573.000
57.04000 637.000
57.08000 600.000
57.12000 597.000
57.16000 589.000
57.20000 627.000
57.24000 589.000
57.28000 618.000
57.32000 581.000
57.36000 625.000
57.40000 590.000
57.44000 589.000
57.48000 649.000
57.52000 583.000
57.56000 593.000
57.60000 606.000
57.64000 591.000
57.68000 581.000
57.72000 613.000
57.76000 597.000
57.80000 613.000
57.84000 660.000
57.88000 641.000
57.92000 641.000
57.96000 681.000
58.00000 665.000
58.04000 711.000
58.08000 711.000
58.12000 693.000
58.16000 631.000
58.20000 618.000
58.24000 624.000
58.28000 644.000
58.32000 604.000
58.36000 605.000
58.40000 592.000
58.44000 573.000
58.48000 568.000
58.52000 573.000
58.56000 577.000
58.60000 576.000
58.64000 605.000
58.68000 597.000
58.72000 577.000
58.76000 616.000
58.80000 647.000
58.84000 610.000
58.88000 614.000
58.92000 571.000
58.96000 595.000
59.00000 605.000
59.04000 588.000
59.08000 604.000
59.12000 623.000
59.16000 586.000
59.20000 559.000
59.24000 592.000
59.28000 577.000
59.32000 594.000
59.36000 608.000
59.40000 578.000
59.44000 604.000
59.48000 544.000
59.52000 644.000
59.56000 567.000
59.60000 590.000
59.64000 554.000
59.68000 599.000
59.72000 603.000
59.76000 637.000
59.80000 618.000
59.84000 620.000
59.88000 611.000
59.92000 575.000