File: XRD/44.xy
5.00000 2791.000
5.04000 2631.000
5.08000 2897.000
5.12000 2668.000
5.16000 2691.000
5.20000 2747.000
5.24000 2570.000
5.28000 2647.000
5.32000 2587.000
5.36000 2545.000
5.40000 2555.000
5.44000 2661.000
5.48000 2594.000
5.52000 2564.000
5.56000 2504.000
5.60000 2513.000
5.64000 2484.000
5.68000 2480.000
5.72000 2450.000
5.76000 2371.000
5.80000 2485.000
5.84000 2357.000
5.88000 2475.000
5.92000 2338.000
5.96000 2332.000
6.00000 2244.000
6.04000 2304.000
6.08000 2231.000
6.12000 2271.000
6.16000 2225.000
6.20000 2211.000
6.24000 2247.000
6.28000 2171.000
6.32000 2172.000
6.36000 2093.000
6.40000 2154.000
6.44000 2050.000
6.48000 2077.000
6.52000 2107.000
6.56000 2044.000
6.60000 1949.000
6.64000 2031.000
6.68000 2017.000
6.72000 2020.000
6.76000 2052.000
6.80000 2019.000
6.84000 2041.000
6.88000 1966.000
6.92000 2000.000
6.96000 2001.000
7.00000 1974.000
7.04000 2055.000
7.08000 1943.000
7.12000 1942.000
7.16000 2033.000
7.20000 1939.000
7.24000 1895.000
7.28000 2002.000
7.32000 2012.000
7.36000 1880.000
7.40000 1875.000
7.44000 1921.000
7.48000 1900.000
7.52000 1949.000
7.56000 1815.000
7.60000 1908.000
7.64000 1887.000
7.68000 1795.000
7.72000 1841.000
7.76000 1851.000
7.80000 1878.000
7.84000 1832.000
7.88000 1826.000
7.92000 1828.000
7.96000 1827.000
8.00000 1790.000
8.04000 1832.000
8.08000 1869.000
8.12000 1865.000
8.16000 1873.000
8.20000 1978.000
8.24000 1866.000
8.28000 1939.000
8.32000 2069.000
8.36000 2108.000
8.40000 2122.000
8.44000 2086.000
8.48000 2143.000
8.52000 2047.000
8.56000 1928.000
8.60000 1828.000
8.64000 1804.000
8.68000 1752.000
8.72000 1734.000
8.76000 1701.000
8.80000 1583.000
8.84000 1602.000
8.88000 1555.000
8.92000 1531.000
8.96000 1606.000
9.00000 1596.000
9.04000 1473.000
9.08000 1566.000
9.12000 1610.000
9.16000 1561.000
9.20000 1590.000
9.24000 1544.000
9.28000 1512.000
9.32000 1570.000
9.36000 1538.000
9.40000 1464.000
9.44000 1456.000
9.48000 1535.000
9.52000 1467.000
9.56000 1466.000
9.60000 1414.000
9.64000 1468.000
9.68000 1412.000
9.72000 1518.000
9.76000 1438.000
9.80000 1440.000
9.84000 1543.000
9.88000 1409.000
9.92000 1410.000
9.96000 1425.000
10.00000 1382.000
10.04000 1388.000
10.08000 1350.000
10.12000 1371.000
10.16000 1303.000
10.20000 1389.000
10.24000 1402.000
10.28000 1392.000
10.32000 1407.000
10.36000 1346.000
10.40000 1346.000
10.44000 1382.000
10.48000 1277.000
10.52000 1307.000
10.56000 1356.000
10.60000 1349.000
10.64000 1309.000
10.68000 1279.000
10.72000 1374.000
10.76000 1350.000
10.80000 1324.000
10.84000 1385.000
10.88000 1306.000
10.92000 1262.000
10.96000 1348.000
11.00000 1348.000
11.04000 1305.000
11.08000 1266.000
11.12000 1301.000
11.16000 1289.000
11.20000 1277.000
11.24000 1331.000
11.28000 1342.000
11.32000 1360.000
11.36000 1364.000
11.40000 1245.000
11.44000 1255.000
11.48000 1338.000
11.52000 1257.000
11.56000 1283.000
11.60000 1225.000
11.64000 1309.000
11.68000 1299.000
11.72000 1264.000
11.76000 1259.000
11.80000 1320.000
11.84000 1248.000
11.88000 1277.000
11.92000 1263.000
11.96000 1264.000
12.00000 1293.000
12.04000 1297.000
12.08000 1262.000
12.12000 1280.000
12.16000 1222.000
12.20000 1273.000
12.24000 1225.000
12.28000 1250.000
12.32000 1353.000
12.36000 1209.000
12.40000 1288.000
12.44000 1316.000
12.48000 1338.000
12.52000 1385.000
12.56000 1423.000
12.60000 1340.000
12.64000 1274.000
12.68000 1279.000
12.72000 1292.000
12.76000 1221.000
12.80000 1248.000
12.84000 1239.000
12.88000 1197.000
12.92000 1178.000
12.96000 1232.000
13.00000 1148.000
13.04000 1197.000
13.08000 1220.000
13.12000 1113.000
13.16000 1159.000
13.20000 1194.000
13.24000 1210.000
13.28000 1203.000
13.32000 1262.000
13.36000 1200.000
13.40000 1136.000
13.44000 1150.000
13.48000 1194.000
13.52000 1170.000
13.56000 1166.000
13.60000 1169.000
13.64000 1146.000
13.68000 1171.000
13.72000 1155.000
13.76000 1126.000
13.80000 1172.000
13.84000 1162.000
13.88000 1141.000
13.92000 1132.000
13.96000 1181.000
14.00000 1106.000
14.04000 1193.000
14.08000 1209.000
14.12000 1059.000
14.16000 1184.000
14.20000 1179.000
14.24000 1146.000
14.28000 1157.000
14.32000 1168.000
14.36000 1191.000
14.40000 1155.000
14.44000 1205.000
14.48000 1196.000
14.52000 1199.000
14.56000 1153.000
14.60000 1171.000
14.64000 1219.000
14.68000 1163.000
14.72000 1159.000
14.76000 1272.000
14.80000 1247.000
14.84000 1204.000
14.88000 1340.000
14.92000 1416.000
14.96000 1482.000
15.00000 1474.000
15.04000 1536.000
15.08000 1578.000
15.12000 1586.000
15.16000 1605.000
15.20000 1519.000
15.24000 1467.000
15.28000 1511.000
15.32000 1374.000
15.36000 1305.000
15.40000 1245.000
15.44000 1285.000
15.48000 1164.000
15.52000 1194.000
15.56000 1197.000
15.60000 1161.000
15.64000 1181.000
15.68000 1191.000
15.72000 1155.000
15.76000 1114.000
15.80000 1114.000
15.84000 1190.000
15.88000 1214.000
15.92000 1231.000
15.96000 1175.000
16.00000 1183.000
16.04000 1157.000
16.08000 1243.000
16.12000 1179.000
16.16000 1162.000
16.20000 1207.000
16.24000 1288.000
16.28000 1220.000
16.32000 1216.000
16.36000 1213.000
16.40000 1217.000
16.44000 1210.000
16.48000 1235.000
16.52000 1219.000
16.56000 1219.000
16.60000 1241.000
16.64000 1216.000
16.68000 1239.000
16.72000 1198.000
16.76000 1266.000
16.80000 1198.000
16.84000 1275.000
16.88000 1409.000
16.92000 1401.000
16.96000 1415.000
17.00000 1512.000
17.04000 1591.000
17.08000 1598.000
17.12000 1555.000
17.16000 1532.000
17.20000 1516.000
17.24000 1541.000
17.28000 1490.000
17.32000 1392.000
17.36000 1401.000
17.40000 1326.000
17.44000 1326.000
17.48000 1279.000
17.52000 1333.000
17.56000 1272.000
17.60000 1277.000
17.64000 1318.000
17.68000 1330.000
17.72000 1290.000
17.76000 1308.000
17.80000 1255.000
17.84000 1285.000
17.88000 1339.000
17.92000 1331.000
17.96000 1342.000
18.00000 1300.000
18.04000 1304.000
18.08000 1369.000
18.12000 1329.000
18.16000 1336.000
18.20000 1307.000
18.24000 1339.000
18.28000 1415.000
18.32000 1358.000
18.36000 1347.000
18.40000 1366.000
18.44000 1429.000
18.48000 1357.000
18.52000 1365.000
18.56000 1384.000
18.60000 1430.000
18.64000 1387.000
18.68000 1408.000
18.72000 1470.000
18.76000 1375.000
18.80000 1471.000
18.84000 1427.000
18.88000 1452.000
18.92000 1366.000
18.96000 1427.000
19.00000 1395.000
19.04000 1449.000
19.08000 1443.000
19.12000 1439.000
19.16000 1496.000
19.20000 1532.000
19.24000 1448.000
19.28000 1391.000
19.32000 1463.000
19.36000 1503.000
19.40000 1454.000
19.44000 1464.000
19.48000 1484.000
19.52000 1519.000
19.56000 1468.000
19.60000 1522.000
19.64000 1491.000
19.68000 1507.000
19.72000 1528.000
19.76000 1491.000
19.80000 1561.000
19.84000 1547.000
19.88000 1530.000
19.92000 1599.000
19.96000 1524.000
20.00000 1544.000
20.04000 1583.000
20.08000 1598.000
20.12000 1599.000
20.16000 1607.000
20.20000 1557.000
20.24000 1611.000
20.28000 1579.000
20.32000 1622.000
20.36000 1557.000
20.40000 1621.000
20.44000 1574.000
20.48000 1629.000
20.52000 1624.000
20.56000 1618.000
20.60000 1604.000
20.64000 1608.000
20.68000 1660.000
20.72000 1579.000
20.76000 1601.000
20.80000 1607.000
20.84000 1663.000
20.88000 1706.000
20.92000 1682.000
20.96000 1626.000
21.00000 1665.000
21.04000 1727.000
21.08000 1635.000
21.12000 1642.000
21.16000 1695.000
21.20000 1651.000
21.24000 1685.000
21.28000 1788.000
21.32000 1717.000
21.36000 1748.000
21.40000 1803.000
21.44000 1758.000
21.48000 1788.000
21.52000 1866.000
21.56000 1864.000
21.60000 1927.000
21.64000 1990.000
21.68000 1927.000
21.72000 1846.000
21.76000 1959.000
21.80000 1903.000
21.84000 1898.000
21.88000 1837.000
21.92000 1817.000
21.96000 1785.000
22.00000 1720.000
22.04000 1861.000
22.08000 1822.000
22.12000 1758.000
22.16000 1827.000
22.20000 1786.000
22.24000 1804.000
22.28000 1851.000
22.32000 1773.000
22.36000 1764.000
22.40000 1764.000
22.44000 1801.000
22.48000 1832.000
22.52000 1824.000
22.56000 1867.000
22.60000 1706.000
22.64000 1825.000
22.68000 1842.000
22.72000 1815.000
22.76000 1765.000
22.80000 1785.000
22.84000 1790.000
22.88000 1741.000
22.92000 1829.000
22.96000 1795.000
23.00000 1816.000
23.04000 1750.000
23.08000 1753.000
23.12000 1889.000
23.16000 1795.000
23.20000 1769.000
23.24000 1776.000
23.28000 1864.000
23.32000 1841.000
23.36000 1783.000
23.40000 1796.000
23.44000 1844.000
23.48000 1840.000
23.52000 1811.000
23.56000 1804.000
23.60000 1903.000
23.64000 1780.000
23.68000 1858.000
23.72000 1862.000
23.76000 1836.000
23.80000 1798.000
23.84000 1840.000
23.88000 1912.000
23.92000 1885.000
23.96000 1822.000
24.00000 1783.000
24.04000 1742.000
24.08000 1870.000
24.12000 1810.000
24.16000 1777.000
24.20000 1775.000
24.24000 1859.000
24.28000 1860.000
24.32000 1912.000
24.36000 1855.000
24.40000 1911.000
24.44000 1999.000
24.48000 2055.000
24.52000 2028.000
24.56000 1986.000
24.60000 2026.000
24.64000 1984.000
24.68000 2000.000
24.72000 1935.000
24.76000 2056.000
24.80000 1925.000
24.84000 1994.000
24.88000 2074.000
24.92000 2047.000
24.96000 2113.000
25.00000 2109.000
25.04000 2112.000
25.08000 2096.000
25.12000 2223.000
25.16000 2154.000
25.20000 2147.000
25.24000 2215.000
25.28000 2270.000
25.32000 2273.000
25.36000 2127.000
25.40000 2167.000
25.44000 2225.000
25.48000 2212.000
25.52000 2220.000
25.56000 2264.000
25.60000 2404.000
25.64000 2568.000
25.68000 2782.000
25.72000 3004.000
25.76000 3257.000
25.80000 3424.000
25.84000 3412.000
25.88000 3522.000
25.92000 3412.000
25.96000 3284.000
26.00000 3011.000
26.04000 2564.000
26.08000 2435.000
26.12000 2089.000
26.16000 1950.000
26.20000 1829.000
26.24000 1801.000
26.28000 1861.000
26.32000 1757.000
26.36000 1789.000
26.40000 1822.000
26.44000 1691.000
26.48000 1697.000
26.52000 1818.000
26.56000 1665.000
26.60000 1730.000
26.64000 1734.000
26.68000 1745.000
26.72000 1765.000
26.76000 1712.000
26.80000 1744.000
26.84000 1772.000
26.88000 1841.000
26.92000 1772.000
26.96000 1758.000
27.00000 1772.000
27.04000 1809.000
27.08000 1737.000
27.12000 1795.000
27.16000 1655.000
27.20000 1687.000
27.24000 1675.000
27.28000 1702.000
27.32000 1683.000
27.36000 1762.000
27.40000 1669.000
27.44000 1647.000
27.48000 1750.000
27.52000 1697.000
27.56000 1712.000
27.60000 1693.000
27.64000 1652.000
27.68000 1672.000
27.72000 1622.000
27.76000 1674.000
27.80000 1687.000
27.84000 1639.000
27.88000 1642.000
27.92000 1663.000
27.96000 1626.000
28.00000 1685.000
28.04000 1683.000
28.08000 1641.000
28.12000 1736.000
28.16000 1719.000
28.20000 1698.000
28.24000 1752.000
28.28000 1761.000
28.32000 1679.000
28.36000 1612.000
28.40000 1654.000
28.44000 1610.000
28.48000 1655.000
28.52000 1579.000
28.56000 1557.000
28.60000 1533.000
28.64000 1609.000
28.68000 1550.000
28.72000 1600.000
28.76000 1571.000
28.80000 1589.000
28.84000 1597.000
28.88000 1590.000
28.92000 1700.000
28.96000 1607.000
29.00000 1645.000
29.04000 1596.000
29.08000 1616.000
29.12000 1572.000
29.16000 1588.000
29.20000 1588.000
29.24000 1543.000
29.28000 1540.000
29.32000 1562.000
29.36000 1511.000
29.40000 1484.000
29.44000 1525.000
29.48000 1465.000
29.52000 1506.000
29.56000 1493.000
29.60000 1493.000
29.64000 1503.000
29.68000 1460.000
29.72000 1513.000
29.76000 1483.000
29.80000 1522.000
29.84000 1471.000
29.88000 1467.000
29.92000 1451.000
29.96000 1447.000
30.00000 1486.000
30.04000 1447.000
30.08000 1407.000
30.12000 1440.000
30.16000 1391.000
30.20000 1429.000
30.24000 1462.000
30.28000 1440.000
30.32000 1489.000
30.36000 1445.000
30.40000 1502.000
30.44000 1533.000
30.48000 1537.000
30.52000 1673.000
30.56000 1651.000
30.60000 1577.000
30.64000 1702.000
30.68000 1593.000
30.72000 1662.000
30.76000 1556.000
30.80000 1530.000
30.84000 1609.000
30.88000 1563.000
30.92000 1611.000
30.96000 1496.000
31.00000 1622.000
31.04000 1606.000
31.08000 1543.000
31.12000 1675.000
31.16000 1592.000
31.20000 1597.000
31.24000 1546.000
31.28000 1528.000
31.32000 1461.000
31.36000 1430.000
31.40000 1405.000
31.44000 1458.000
31.48000 1424.000
31.52000 1317.000
31.56000 1306.000
31.60000 1346.000
31.64000 1364.000
31.68000 1359.000
31.72000 1338.000
31.76000 1327.000
31.80000 1307.000
31.84000 1276.000
31.88000 1340.000
31.92000 1317.000
31.96000 1329.000
32.00000 1315.000
32.04000 1303.000
32.08000 1310.000
32.12000 1295.000
32.16000 1296.000
32.20000 1271.000
32.24000 1293.000
32.28000 1304.000
32.32000 1223.000
32.36000 1277.000
32.40000 1272.000
32.44000 1241.000
32.48000 1223.000
32.52000 1228.000
32.56000 1258.000
32.60000 1270.000
32.64000 1244.000
32.68000 1267.000
32.72000 1264.000
32.76000 1155.000
32.80000 1236.000
32.84000 1256.000
32.88000 1237.000
32.92000 1193.000
32.96000 1212.000
33.00000 1255.000
33.04000 1255.000
33.08000 1174.000
33.12000 1226.000
33.16000 1171.000
33.20000 1146.000
33.24000 1211.000
33.28000 1157.000
33.32000 1170.000
33.36000 1185.000
33.40000 1271.000
33.44000 1256.000
33.48000 1202.000
33.52000 1190.000
33.56000 1209.000
33.60000 1145.000
33.64000 1143.000
33.68000 1162.000
33.72000 1169.000
33.76000 1191.000
33.80000 1190.000
33.84000 1160.000
33.88000 1136.000
33.92000 1126.000
33.96000 1119.000
34.00000 1135.000
34.04000 1137.000
34.08000 1076.000
34.12000 1087.000
34.16000 1220.000
34.20000 1159.000
34.24000 1196.000
34.28000 1163.000
34.32000 1230.000
34.36000 1191.000
34.40000 1139.000
34.44000 1169.000
34.48000 1122.000
34.52000 1155.000
34.56000 1122.000
34.60000 1068.000
34.64000 1046.000
34.68000 1044.000
34.72000 1019.000
34.76000 1064.000
34.80000 1069.000
34.84000 1077.000
34.88000 1007.000
34.92000 1007.000
34.96000 983.000
35.00000 1034.000
35.04000 969.000
35.08000 1040.000
35.12000 998.000
35.16000 1026.000
35.20000 1038.000
35.24000 1006.000
35.28000 948.000
35.32000 1023.000
35.36000 978.000
35.40000 996.000
35.44000 951.000
35.48000 996.000
35.52000 937.000
35.56000 1032.000
35.60000 993.000
35.64000 1005.000
35.68000 1026.000
35.72000 1054.000
35.76000 1025.000
35.80000 985.000
35.84000 1062.000
35.88000 1050.000
35.92000 1057.000
35.96000 1077.000
36.00000 969.000
36.04000 978.000
36.08000 971.000
36.12000 981.000
36.16000 936.000
36.20000 967.000
36.24000 920.000
36.28000 915.000
36.32000 906.000
36.36000 941.000
36.40000 876.000
36.44000 916.000
36.48000 908.000
36.52000 893.000
36.56000 894.000
36.60000 871.000
36.64000 839.000
36.68000 832.000
36.72000 898.000
36.76000 824.000
36.80000 831.000
36.84000 910.000
36.88000 894.000
36.92000 866.000
36.96000 847.000
37.00000 864.000
37.04000 879.000
37.08000 857.000
37.12000 823.000
37.16000 871.000
37.20000 900.000
37.24000 890.000
37.28000 892.000
37.32000 854.000
37.36000 919.000
37.40000 850.000
37.44000 825.000
37.48000 859.000
37.52000 854.000
37.56000 833.000
37.60000 782.000
37.64000 822.000
37.68000 799.000
37.72000 807.000
37.76000 779.000
37.80000 788.000
37.84000 823.000
37.88000 786.000
37.92000 797.000
37.96000 790.000
38.00000 803.000
38.04000 769.000
38.08000 741.000
38.12000 784.000
38.16000 774.000
38.20000 804.000
38.24000 811.000
38.28000 836.000
38.32000 801.000
38.36000 859.000
38.40000 843.000
38.44000 835.000
38.48000 848.000
38.52000 808.000
38.56000 840.000
38.60000 832.000
38.64000 870.000
38.68000 864.000
38.72000 810.000
38.76000 745.000
38.80000 754.000
38.84000 787.000
38.88000 725.000
38.92000 774.000
38.96000 719.000
39.00000 749.000
39.04000 788.000
39.08000 727.000
39.12000 733.000
39.16000 734.000
39.20000 747.000
39.24000 741.000
39.28000 731.000
39.32000 746.000
39.36000 740.000
39.40000 776.000
39.44000 687.000
39.48000 754.000
39.52000 800.000
39.56000 807.000
39.60000 721.000
39.64000 732.000
39.68000 766.000
39.72000 714.000
39.76000 728.000
39.80000 719.000
39.84000 756.000
39.88000 715.000
39.92000 777.000
39.96000 809.000
40.00000 712.000
40.04000 731.000
40.08000 712.000
40.12000 708.000
40.16000 698.000
40.20000 706.000
40.24000 727.000
40.28000 683.000
40.32000 726.000
40.36000 812.000
40.40000 747.000
40.44000 800.000
40.48000 800.000
40.52000 753.000
40.56000 706.000
40.60000 721.000
40.64000 748.000
40.68000 697.000
40.72000 716.000
40.76000 714.000
40.80000 760.000
40.84000 728.000
40.88000 766.000
40.92000 727.000
40.96000 782.000
41.00000 693.000
41.04000 664.000
41.08000 729.000
41.12000 726.000
41.16000 754.000
41.20000 704.000
41.24000 706.000
41.28000 755.000
41.32000 665.000
41.36000 762.000
41.40000 754.000
41.44000 725.000
41.48000 685.000
41.52000 766.000
41.56000 746.000
41.60000 708.000
41.64000 743.000
41.68000 705.000
41.72000 737.000
41.76000 720.000
41.80000 746.000
41.84000 760.000
41.88000 710.000
41.92000 740.000
41.96000 730.000
42.00000 731.000
42.04000 761.000
42.08000 728.000
42.12000 746.000
42.16000 740.000
42.20000 774.000
42.24000 820.000
42.28000 740.000
42.32000 791.000
42.36000 814.000
42.40000 760.000
42.44000 782.000
42.48000 795.000
42.52000 805.000
42.56000 807.000
42.60000 744.000
42.64000 732.000
42.68000 770.000
42.72000 774.000
42.76000 683.000
42.80000 742.000
42.84000 705.000
42.88000 707.000
42.92000 710.000
42.96000 759.000
43.00000 735.000
43.04000 715.000
43.08000 756.000
43.12000 720.000
43.16000 784.000
43.20000 731.000
43.24000 702.000
43.28000 716.000
43.32000 668.000
43.36000 712.000
43.40000 735.000
43.44000 684.000
43.48000 728.000
43.52000 692.000
43.56000 718.000
43.60000 709.000
43.64000 691.000
43.68000 725.000
43.72000 745.000
43.76000 698.000
43.80000 763.000
43.84000 793.000
43.88000 813.000
43.92000 760.000
43.96000 799.000
44.00000 840.000
44.04000 814.000
44.08000 793.000
44.12000 786.000
44.16000 792.000
44.20000 781.000
44.24000 749.000
44.28000 794.000
44.32000 787.000
44.36000 758.000
44.40000 783.000
44.44000 772.000
44.48000 774.000
44.52000 722.000
44.56000 741.000
44.60000 751.000
44.64000 712.000
44.68000 748.000
44.72000 697.000
44.76000 707.000
44.80000 701.000
44.84000 739.000
44.88000 703.000
44.92000 670.000
44.96000 696.000
45.00000 704.000
45.04000 718.000
45.08000 703.000
45.12000 702.000
45.16000 685.000
45.20000 693.000
45.24000 704.000
45.28000 692.000
45.32000 680.000
45.36000 641.000
45.40000 735.000
45.44000 734.000
45.48000 716.000
45.52000 722.000
45.56000 729.000
45.60000 742.000
45.64000 760.000
45.68000 742.000
45.72000 751.000
45.76000 750.000
45.80000 786.000
45.84000 717.000
45.88000 819.000
45.92000 790.000
45.96000 804.000
46.00000 845.000
46.04000 836.000
46.08000 799.000
46.12000 844.000
46.16000 800.000
46.20000 831.000
46.24000 793.000
46.28000 744.000
46.32000 747.000
46.36000 760.000
46.40000 749.000
46.44000 747.000
46.48000 736.000
46.52000 659.000
46.56000 744.000
46.60000 703.000
46.64000 711.000
46.68000 680.000
46.72000 649.000
46.76000 689.000
46.80000 681.000
46.84000 654.000
46.88000 662.000
46.92000 642.000
46.96000 708.000
47.00000 683.000
47.04000 683.000
47.08000 711.000
47.12000 674.000
47.16000 640.000
47.20000 692.000
47.24000 615.000
47.28000 672.000
47.32000 643.000
47.36000 662.000
47.40000 667.000
47.44000 650.000
47.48000 675.000
47.52000 699.000
47.56000 626.000
47.60000 657.000
47.64000 660.000
47.68000 691.000
47.72000 638.000
47.76000 675.000
47.80000 644.000
47.84000 660.000
47.88000 694.000
47.92000 663.000
47.96000 621.000
48.00000 651.000
48.04000 628.000
48.08000 682.000
48.12000 653.000
48.16000 625.000
48.20000 624.000
48.24000 647.000
48.28000 646.000
48.32000 621.000
48.36000 624.000
48.40000 647.000
48.44000 623.000
48.48000 609.000
48.52000 622.000
48.56000 632.000
48.60000 692.000
48.64000 625.000
48.68000 708.000
48.72000 636.000
48.76000 684.000
48.80000 654.000
48.84000 667.000
48.88000 693.000
48.92000 682.000
48.96000 690.000
49.00000 761.000
49.04000 698.000
49.08000 658.000
49.12000 672.000
49.16000 651.000
49.20000 655.000
49.24000 710.000
49.28000 681.000
49.32000 667.000
49.36000 643.000
49.40000 693.000
49.44000 653.000
49.48000 661.000
49.52000 602.000
49.56000 618.000
49.60000 655.000
49.64000 624.000
49.68000 626.000
49.72000 613.000
49.76000 635.000
49.80000 624.000
49.84000 584.000
49.88000 607.000
49.92000 621.000
49.96000 611.000
50.00000 608.000
50.04000 630.000
50.08000 606.000
50.12000 662.000
50.16000 647.000
50.20000 597.000
50.24000 578.000
50.28000 608.000
50.32000 600.000
50.36000 604.000
50.40000 663.000
50.44000 620.000
50.48000 637.000
50.52000 617.000
50.56000 610.000
50.60000 648.000
50.64000 587.000
50.68000 616.000
50.72000 594.000
50.76000 612.000
50.80000 607.000
50.84000 612.000
50.88000 584.000
50.92000 643.000
50.96000 638.000
51.00000 587.000
51.04000 626.000
51.08000 622.000
51.12000 616.000
51.16000 589.000
51.20000 590.000
51.24000 597.000
51.28000 600.000
51.32000 571.000
51.36000 573.000
51.40000 607.000
51.44000 602.000
51.48000 566.000
51.52000 597.000
51.56000 581.000
51.60000 615.000
51.64000 599.000
51.68000 593.000
51.72000 628.000
51.76000 637.000
51.80000 619.000
51.84000 633.000
51.88000 584.000
51.92000 619.000
51.96000 622.000
52.00000 623.000
52.04000 604.000
52.08000 651.000
52.12000 577.000
52.16000 592.000
52.20000 627.000
52.24000 610.000
52.28000 592.000
52.32000 606.000
52.36000 623.000
52.40000 573.000
52.44000 579.000
52.48000 611.000
52.52000 620.000
52.56000 645.000
52.60000 610.000
52.64000 607.000
52.68000 594.000
52.72000 593.000
52.76000 622.000
52.80000 611.000
52.84000 637.000
52.88000 565.000
52.92000 592.000
52.96000 617.000
53.00000 571.000
53.04000 611.000
53.08000 621.000
53.12000 601.000
53.16000 624.000
53.20000 643.000
53.24000 642.000
53.28000 654.000
53.32000 655.000
53.36000 614.000
53.40000 643.000
53.44000 600.000
53.48000 698.000
53.52000 596.000
53.56000 619.000
53.60000 563.000
53.64000 580.000
53.68000 591.000
53.72000 588.000
53.76000 553.000
53.80000 610.000
53.84000 604.000
53.88000 581.000
53.92000 598.000
53.96000 583.000
54.00000 616.000
54.04000 594.000
54.08000 598.000
54.12000 615.000
54.16000 547.000
54.20000 592.000
54.24000 610.000
54.28000 648.000
54.32000 600.000
54.36000 547.000
54.40000 602.000
54.44000 593.000
54.48000 600.000
54.52000 622.000
54.56000 608.000
54.60000 662.000
54.64000 621.000
54.68000 674.000
54.72000 620.000
54.76000 642.000
54.80000 571.000
54.84000 675.000
54.88000 650.000
54.92000 617.000
54.96000 610.000
55.00000 629.000
55.04000 615.000
55.08000 577.000
55.12000 587.000
55.16000 632.000
55.20000 617.000
55.24000 542.000
55.28000 610.000
55.32000 622.000
55.36000 604.000
55.40000 570.000
55.44000 577.000
55.48000 598.000
55.52000 589.000
55.56000 594.000
55.60000 583.000
55.64000 564.000
55.68000 577.000
55.72000 559.000
55.76000 572.000
55.80000 615.000
55.84000 579.000
55.88000 581.000
55.92000 579.000
55.96000 559.000
56.00000 624.000
56.04000 616.000
56.08000 580.000
56.12000 624.000
56.16000 583.000
56.20000 559.000
56.24000 601.000
56.28000 639.000
56.32000 638.000
56.36000 625.000
56.40000 565.000
56.44000 591.000
56.48000 597.000
56.52000 600.000
56.56000 599.000
56.60000 603.000
56.64000 607.000
56.68000 659.000
56.72000 609.000
56.76000 627.000
56.80000 632.000
56.84000 593.000
56.88000 632.000
56.92000 550.000
56.96000 621.000
57.00000 651.000
57.04000 557.000
57.08000 566.000
57.12000 582.000
57.16000 607.000
57.20000 580.000
57.24000 587.000
57.28000 589.000
57.32000 596.000
57.36000 591.000
57.40000 581.000
57.44000 588.000
57.48000 629.000
57.52000 651.000
57.56000 603.000
57.60000 618.000
57.64000 613.000
57.68000 594.000
57.72000 609.000
57.76000 592.000
57.80000 609.000
57.84000 596.000
57.88000 567.000
57.92000 591.000
57.96000 592.000
58.00000 557.000
58.04000 559.000
58.08000 564.000
58.12000 643.000
58.16000 622.000
58.20000 572.000
58.24000 599.000
58.28000 609.000
58.32000 595.000
58.36000 578.000
58.40000 599.000
58.44000 664.000
58.48000 591.000
58.52000 640.000
58.56000 650.000
58.60000 655.000
58.64000 671.000
58.68000 682.000
58.72000 638.000
58.76000 648.000
58.80000 644.000
58.84000 660.000
58.88000 597.000
58.92000 662.000
58.96000 645.000
59.00000 633.000
59.04000 606.000
59.08000 615.000
59.12000 607.000
59.16000 633.000
59.20000 586.000
59.24000 559.000
59.28000 584.000
59.32000 605.000
59.36000 628.000
59.40000 573.000
59.44000 590.000
59.48000 582.000
59.52000 568.000
59.56000 581.000
59.60000 599.000
59.64000 615.000
59.68000 621.000
59.72000 604.000
59.76000 614.000
59.80000 594.000
59.84000 565.000
59.88000 623.000
59.92000 591.000