File: XRD/45.xy
5.00000 1581.000
5.04000 1523.000
5.08000 1493.000
5.12000 1475.000
5.16000 1495.000
5.20000 1472.000
5.24000 1555.000
5.28000 1419.000
5.32000 1409.000
5.36000 1446.000
5.40000 1424.000
5.44000 1419.000
5.48000 1432.000
5.52000 1407.000
5.56000 1367.000
5.60000 1316.000
5.64000 1324.000
5.68000 1326.000
5.72000 1315.000
5.76000 1374.000
5.80000 1354.000
5.84000 1289.000
5.88000 1221.000
5.92000 1280.000
5.96000 1192.000
6.00000 1265.000
6.04000 1210.000
6.08000 1265.000
6.12000 1252.000
6.16000 1255.000
6.20000 1261.000
6.24000 1181.000
6.28000 1263.000
6.32000 1240.000
6.36000 1183.000
6.40000 1206.000
6.44000 1165.000
6.48000 1171.000
6.52000 1140.000
6.56000 1072.000
6.60000 1087.000
6.64000 1108.000
6.68000 1123.000
6.72000 1115.000
6.76000 1110.000
6.80000 1098.000
6.84000 1098.000
6.88000 1020.000
6.92000 1073.000
6.96000 1040.000
7.00000 1068.000
7.04000 1068.000
7.08000 1096.000
7.12000 1009.000
7.16000 1023.000
7.20000 1074.000
7.24000 1010.000
7.28000 1033.000
7.32000 1021.000
7.36000 1110.000
7.40000 1016.000
7.44000 972.000
7.48000 1049.000
7.52000 1002.000
7.56000 1015.000
7.60000 1001.000
7.64000 1036.000
7.68000 1007.000
7.72000 1016.000
7.76000 971.000
7.80000 993.000
7.84000 1078.000
7.88000 1049.000
7.92000 1006.000
7.96000 992.000
8.00000 1084.000
8.04000 1150.000
8.08000 1068.000
8.12000 1118.000
8.16000 1214.000
8.20000 1189.000
8.24000 1182.000
8.28000 1202.000
8.32000 1265.000
8.36000 1243.000
8.40000 1153.000
8.44000 1133.000
8.48000 1007.000
8.52000 977.000
8.56000 972.000
8.60000 899.000
8.64000 887.000
8.68000 888.000
8.72000 831.000
8.76000 817.000
8.80000 882.000
8.84000 807.000
8.88000 817.000
8.92000 808.000
8.96000 816.000
9.00000 780.000
9.04000 749.000
9.08000 833.000
9.12000 824.000
9.16000 835.000
9.20000 796.000
9.24000 761.000
9.28000 848.000
9.32000 788.000
9.36000 845.000
9.40000 769.000
9.44000 860.000
9.48000 745.000
9.52000 774.000
9.56000 745.000
9.60000 744.000
9.64000 789.000
9.68000 753.000
9.72000 756.000
9.76000 778.000
9.80000 739.000
9.84000 790.000
9.88000 743.000
9.92000 758.000
9.96000 756.000
10.00000 754.000
10.04000 713.000
10.08000 736.000
10.12000 724.000
10.16000 732.000
10.20000 778.000
10.24000 702.000
10.28000 731.000
10.32000 697.000
10.36000 757.000
10.40000 698.000
10.44000 683.000
10.48000 719.000
10.52000 785.000
10.56000 704.000
10.60000 713.000
10.64000 740.000
10.68000 734.000
10.72000 749.000
10.76000 728.000
10.80000 772.000
10.84000 728.000
10.88000 694.000
10.92000 738.000
10.96000 753.000
11.00000 719.000
11.04000 765.000
11.08000 693.000
11.12000 716.000
11.16000 679.000
11.20000 700.000
11.24000 756.000
11.28000 707.000
11.32000 722.000
11.36000 669.000
11.40000 677.000
11.44000 698.000
11.48000 653.000
11.52000 702.000
11.56000 719.000
11.60000 769.000
11.64000 698.000
11.68000 725.000
11.72000 753.000
11.76000 779.000
11.80000 741.000
11.84000 760.000
11.88000 770.000
11.92000 757.000
11.96000 872.000
12.00000 868.000
12.04000 855.000
12.08000 877.000
12.12000 838.000
12.16000 787.000
12.20000 828.000
12.24000 791.000
12.28000 783.000
12.32000 822.000
12.36000 800.000
12.40000 762.000
12.44000 813.000
12.48000 847.000
12.52000 847.000
12.56000 874.000
12.60000 873.000
12.64000 935.000
12.68000 956.000
12.72000 967.000
12.76000 932.000
12.80000 1017.000
12.84000 987.000
12.88000 933.000
12.92000 925.000
12.96000 891.000
13.00000 830.000
13.04000 739.000
13.08000 752.000
13.12000 772.000
13.16000 723.000
13.20000 750.000
13.24000 680.000
13.28000 690.000
13.32000 651.000
13.36000 680.000
13.40000 676.000
13.44000 722.000
13.48000 664.000
13.52000 690.000
13.56000 616.000
13.60000 702.000
13.64000 676.000
13.68000 659.000
13.72000 694.000
13.76000 659.000
13.80000 638.000
13.84000 671.000
13.88000 675.000
13.92000 668.000
13.96000 667.000
14.00000 685.000
14.04000 678.000
14.08000 682.000
14.12000 656.000
14.16000 648.000
14.20000 688.000
14.24000 614.000
14.28000 690.000
14.32000 642.000
14.36000 658.000
14.40000 681.000
14.44000 693.000
14.48000 664.000
14.52000 704.000
14.56000 672.000
14.60000 702.000
14.64000 676.000
14.68000 678.000
14.72000 679.000
14.76000 682.000
14.80000 666.000
14.84000 658.000
14.88000 734.000
14.92000 728.000
14.96000 718.000
15.00000 703.000
15.04000 694.000
15.08000 698.000
15.12000 687.000
15.16000 723.000
15.20000 689.000
15.24000 688.000
15.28000 713.000
15.32000 636.000
15.36000 723.000
15.40000 761.000
15.44000 716.000
15.48000 705.000
15.52000 746.000
15.56000 725.000
15.60000 726.000
15.64000 739.000
15.68000 728.000
15.72000 742.000
15.76000 740.000
15.80000 722.000
15.84000 731.000
15.88000 736.000
15.92000 752.000
15.96000 694.000
16.00000 717.000
16.04000 753.000
16.08000 710.000
16.12000 727.000
16.16000 797.000
16.20000 781.000
16.24000 793.000
16.28000 810.000
16.32000 745.000
16.36000 831.000
16.40000 802.000
16.44000 846.000
16.48000 890.000
16.52000 963.000
16.56000 940.000
16.60000 962.000
16.64000 915.000
16.68000 996.000
16.72000 1022.000
16.76000 1008.000
16.80000 972.000
16.84000 923.000
16.88000 921.000
16.92000 890.000
16.96000 810.000
17.00000 832.000
17.04000 821.000
17.08000 807.000
17.12000 780.000
17.16000 786.000
17.20000 761.000
17.24000 845.000
17.28000 825.000
17.32000 825.000
17.36000 851.000
17.40000 839.000
17.44000 816.000
17.48000 818.000
17.52000 810.000
17.56000 826.000
17.60000 869.000
17.64000 812.000
17.68000 820.000
17.72000 847.000
17.76000 797.000
17.80000 903.000
17.84000 849.000
17.88000 793.000
17.92000 859.000
17.96000 849.000
18.00000 844.000
18.04000 869.000
18.08000 915.000
18.12000 846.000
18.16000 930.000
18.20000 934.000
18.24000 889.000
18.28000 895.000
18.32000 832.000
18.36000 841.000
18.40000 820.000
18.44000 795.000
18.48000 907.000
18.52000 884.000
18.56000 898.000
18.60000 892.000
18.64000 934.000
18.68000 907.000
18.72000 904.000
18.76000 917.000
18.80000 917.000
18.84000 892.000
18.88000 963.000
18.92000 895.000
18.96000 944.000
19.00000 865.000
19.04000 949.000
19.08000 923.000
19.12000 886.000
19.16000 986.000
19.20000 970.000
19.24000 1052.000
19.28000 1008.000
19.32000 1018.000
19.36000 920.000
19.40000 1040.000
19.44000 964.000
19.48000 1015.000
19.52000 1012.000
19.56000 1022.000
19.60000 925.000
19.64000 1073.000
19.68000 1044.000
19.72000 942.000
19.76000 983.000
19.80000 1037.000
19.84000 990.000
19.88000 985.000
19.92000 1020.000
19.96000 1033.000
20.00000 1070.000
20.04000 998.000
20.08000 1000.000
20.12000 976.000
20.16000 1013.000
20.20000 1065.000
20.24000 1064.000
20.28000 1080.000
20.32000 1018.000
20.36000 1096.000
20.40000 1148.000
20.44000 1134.000
20.48000 1161.000
20.52000 1109.000
20.56000 1082.000
20.60000 1197.000
20.64000 1092.000
20.68000 1190.000
20.72000 1171.000
20.76000 1164.000
20.80000 1151.000
20.84000 1161.000
20.88000 1212.000
20.92000 1131.000
20.96000 1228.000
21.00000 1198.000
21.04000 1221.000
21.08000 1206.000
21.12000 1230.000
21.16000 1196.000
21.20000 1326.000
21.24000 1238.000
21.28000 1166.000
21.32000 1243.000
21.36000 1220.000
21.40000 1253.000
21.44000 1174.000
21.48000 1190.000
21.52000 1186.000
21.56000 1201.000
21.60000 1201.000
21.64000 1187.000
21.68000 1190.000
21.72000 1183.000
21.76000 1215.000
21.80000 1203.000
21.84000 1180.000
21.88000 1264.000
21.92000 1204.000
21.96000 1234.000
22.00000 1219.000
22.04000 1272.000
22.08000 1218.000
22.12000 1159.000
22.16000 1198.000
22.20000 1221.000
22.24000 1241.000
22.28000 1270.000
22.32000 1233.000
22.36000 1276.000
22.40000 1243.000
22.44000 1286.000
22.48000 1276.000
22.52000 1267.000
22.56000 1257.000
22.60000 1274.000
22.64000 1328.000
22.68000 1231.000
22.72000 1307.000
22.76000 1288.000
22.80000 1250.000
22.84000 1297.000
22.88000 1307.000
22.92000 1194.000
22.96000 1305.000
23.00000 1338.000
23.04000 1304.000
23.08000 1256.000
23.12000 1237.000
23.16000 1233.000
23.20000 1301.000
23.24000 1290.000
23.28000 1214.000
23.32000 1327.000
23.36000 1311.000
23.40000 1266.000
23.44000 1322.000
23.48000 1314.000
23.52000 1282.000
23.56000 1294.000
23.60000 1271.000
23.64000 1311.000
23.68000 1347.000
23.72000 1334.000
23.76000 1280.000
23.80000 1377.000
23.84000 1367.000
23.88000 1388.000
23.92000 1303.000
23.96000 1359.000
24.00000 1371.000
24.04000 1388.000
24.08000 1401.000
24.12000 1433.000
24.16000 1459.000
24.20000 1483.000
24.24000 1463.000
24.28000 1513.000
24.32000 1514.000
24.36000 1488.000
24.40000 1499.000
24.44000 1496.000
24.48000 1390.000
24.52000 1367.000
24.56000 1446.000
24.60000 1497.000
24.64000 1504.000
24.68000 1424.000
24.72000 1602.000
24.76000 1516.000
24.80000 1585.000
24.84000 1720.000
24.88000 1634.000
24.92000 1886.000
24.96000 2077.000
25.00000 2198.000
25.04000 2356.000
25.08000 2492.000
25.12000 2723.000
25.16000 2708.000
25.20000 2724.000
25.24000 2747.000
25.28000 2574.000
25.32000 2422.000
25.36000 2267.000
25.40000 2174.000
25.44000 1966.000
25.48000 1843.000
25.52000 1695.000
25.56000 1582.000
25.60000 1598.000
25.64000 1559.000
25.68000 1555.000
25.72000 1578.000
25.76000 1607.000
25.80000 1626.000
25.84000 1599.000
25.88000 1574.000
25.92000 1549.000
25.96000 1561.000
26.00000 1450.000
26.04000 1518.000
26.08000 1372.000
26.12000 1404.000
26.16000 1314.000
26.20000 1308.000
26.24000 1376.000
26.28000 1308.000
26.32000 1300.000
26.36000 1340.000
26.40000 1361.000
26.44000 1242.000
26.48000 1299.000
26.52000 1285.000
26.56000 1206.000
26.60000 1267.000
26.64000 1196.000
26.68000 1244.000
26.72000 1251.000
26.76000 1311.000
26.80000 1249.000
26.84000 1288.000
26.88000 1268.000
26.92000 1318.000
26.96000 1315.000
27.00000 1322.000
27.04000 1277.000
27.08000 1281.000
27.12000 1314.000
27.16000 1324.000
27.20000 1310.000
27.24000 1335.000
27.28000 1309.000
27.32000 1398.000
27.36000 1423.000
27.40000 1382.000
27.44000 1484.000
27.48000 1430.000
27.52000 1491.000
27.56000 1457.000
27.60000 1449.000
27.64000 1437.000
27.68000 1384.000
27.72000 1364.000
27.76000 1382.000
27.80000 1294.000
27.84000 1327.000
27.88000 1273.000
27.92000 1240.000
27.96000 1289.000
28.00000 1166.000
28.04000 1232.000
28.08000 1251.000
28.12000 1202.000
28.16000 1232.000
28.20000 1246.000
28.24000 1181.000
28.28000 1223.000
28.32000 1208.000
28.36000 1164.000
28.40000 1132.000
28.44000 1191.000
28.48000 1181.000
28.52000 1120.000
28.56000 1121.000
28.60000 1089.000
28.64000 1174.000
28.68000 1148.000
28.72000 1123.000
28.76000 1072.000
28.80000 1164.000
28.84000 1175.000
28.88000 1193.000
28.92000 1134.000
28.96000 1158.000
29.00000 1124.000
29.04000 1146.000
29.08000 1130.000
29.12000 1142.000
29.16000 1066.000
29.20000 1163.000
29.24000 1183.000
29.28000 1130.000
29.32000 1160.000
29.36000 1150.000
29.40000 1156.000
29.44000 1203.000
29.48000 1212.000
29.52000 1203.000
29.56000 1243.000
29.60000 1283.000
29.64000 1275.000
29.68000 1321.000
29.72000 1322.000
29.76000 1332.000
29.80000 1314.000
29.84000 1369.000
29.88000 1322.000
29.92000 1244.000
29.96000 1203.000
30.00000 1204.000
30.04000 1210.000
30.08000 1172.000
30.12000 1136.000
30.16000 1133.000
30.20000 1137.000
30.24000 1107.000
30.28000 1086.000
30.32000 1124.000
30.36000 1006.000
30.40000 995.000
30.44000 1078.000
30.48000 1037.000
30.52000 1031.000
30.56000 1031.000
30.60000 1078.000
30.64000 1035.000
30.68000 1026.000
30.72000 1091.000
30.76000 1012.000
30.80000 1052.000
30.84000 1033.000
30.88000 1052.000
30.92000 1053.000
30.96000 1011.000
31.00000 1029.000
31.04000 949.000
31.08000 1012.000
31.12000 989.000
31.16000 981.000
31.20000 1050.000
31.24000 993.000
31.28000 1031.000
31.32000 962.000
31.36000 1009.000
31.40000 1035.000
31.44000 979.000
31.48000 949.000
31.52000 969.000
31.56000 1023.000
31.60000 1003.000
31.64000 957.000
31.68000 968.000
31.72000 936.000
31.76000 994.000
31.80000 956.000
31.84000 999.000
31.88000 1028.000
31.92000 1018.000
31.96000 989.000
32.00000 1008.000
32.04000 1074.000
32.08000 1033.000
32.12000 992.000
32.16000 1007.000
32.20000 1080.000
32.24000 1085.000
32.28000 1117.000
32.32000 1103.000
32.36000 1117.000
32.40000 1067.000
32.44000 1149.000
32.48000 1121.000
32.52000 1147.000
32.56000 1118.000
32.60000 1030.000
32.64000 1083.000
32.68000 1043.000
32.72000 1013.000
32.76000 1027.000
32.80000 1023.000
32.84000 1041.000
32.88000 979.000
32.92000 1014.000
32.96000 944.000
33.00000 947.000
33.04000 948.000
33.08000 932.000
33.12000 964.000
33.16000 888.000
33.20000 990.000
33.24000 935.000
33.28000 930.000
33.32000 903.000
33.36000 873.000
33.40000 873.000
33.44000 757.000
33.48000 804.000
33.52000 859.000
33.56000 852.000
33.60000 832.000
33.64000 820.000
33.68000 844.000
33.72000 818.000
33.76000 787.000
33.80000 895.000
33.84000 843.000
33.88000 805.000
33.92000 832.000
33.96000 764.000
34.00000 813.000
34.04000 779.000
34.08000 798.000
34.12000 798.000
34.16000 818.000
34.20000 799.000
34.24000 774.000
34.28000 794.000
34.32000 807.000
34.36000 774.000
34.40000 788.000
34.44000 775.000
34.48000 733.000
34.52000 742.000
34.56000 713.000
34.60000 798.000
34.64000 791.000
34.68000 733.000
34.72000 759.000
34.76000 778.000
34.80000 707.000
34.84000 753.000
34.88000 732.000
34.92000 741.000
34.96000 762.000
35.00000 800.000
35.04000 745.000
35.08000 761.000
35.12000 737.000
35.16000 727.000
35.20000 707.000
35.24000 716.000
35.28000 727.000
35.32000 686.000
35.36000 694.000
35.40000 681.000
35.44000 726.000
35.48000 691.000
35.52000 689.000
35.56000 758.000
35.60000 733.000
35.64000 715.000
35.68000 701.000
35.72000 691.000
35.76000 692.000
35.80000 665.000
35.84000 704.000
35.88000 661.000
35.92000 664.000
35.96000 678.000
36.00000 637.000
36.04000 703.000
36.08000 687.000
36.12000 650.000
36.16000 648.000
36.20000 625.000
36.24000 606.000
36.28000 673.000
36.32000 624.000
36.36000 604.000
36.40000 660.000
36.44000 648.000
36.48000 667.000
36.52000 637.000
36.56000 597.000
36.60000 628.000
36.64000 648.000
36.68000 635.000
36.72000 623.000
36.76000 586.000
36.80000 625.000
36.84000 623.000
36.88000 615.000
36.92000 620.000
36.96000 645.000
37.00000 641.000
37.04000 602.000
37.08000 636.000
37.12000 611.000
37.16000 575.000
37.20000 646.000
37.24000 617.000
37.28000 626.000
37.32000 611.000
37.36000 571.000
37.40000 581.000
37.44000 576.000
37.48000 615.000
37.52000 607.000
37.56000 614.000
37.60000 545.000
37.64000 560.000
37.68000 589.000
37.72000 558.000
37.76000 557.000
37.80000 584.000
37.84000 600.000
37.88000 579.000
37.92000 600.000
37.96000 574.000
38.00000 599.000
38.04000 558.000
38.08000 601.000
38.12000 558.000
38.16000 503.000
38.20000 549.000
38.24000 553.000
38.28000 550.000
38.32000 590.000
38.36000 520.000
38.40000 588.000
38.44000 600.000
38.48000 595.000
38.52000 597.000
38.56000 629.000
38.60000 622.000
38.64000 582.000
38.68000 580.000
38.72000 557.000
38.76000 587.000
38.80000 587.000
38.84000 550.000
38.88000 581.000
38.92000 568.000
38.96000 596.000
39.00000 564.000
39.04000 528.000
39.08000 586.000
39.12000 562.000
39.16000 589.000
39.20000 572.000
39.24000 589.000
39.28000 552.000
39.32000 573.000
39.36000 529.000
39.40000 569.000
39.44000 578.000
39.48000 574.000
39.52000 538.000
39.56000 548.000
39.60000 575.000
39.64000 529.000
39.68000 551.000
39.72000 504.000
39.76000 594.000
39.80000 557.000
39.84000 572.000
39.88000 568.000
39.92000 525.000
39.96000 566.000
40.00000 549.000
40.04000 549.000
40.08000 529.000
40.12000 500.000
40.16000 549.000
40.20000 521.000
40.24000 524.000
40.28000 571.000
40.32000 529.000
40.36000 509.000
40.40000 555.000
40.44000 532.000
40.48000 583.000
40.52000 535.000
40.56000 609.000
40.60000 535.000
40.64000 528.000
40.68000 545.000
40.72000 535.000
40.76000 516.000
40.80000 542.000
40.84000 538.000
40.88000 554.000
40.92000 556.000
40.96000 550.000
41.00000 539.000
41.04000 490.000
41.08000 574.000
41.12000 562.000
41.16000 525.000
41.20000 587.000
41.24000 547.000
41.28000 506.000
41.32000 551.000
41.36000 529.000
41.40000 515.000
41.44000 514.000
41.48000 533.000
41.52000 505.000
41.56000 540.000
41.60000 552.000
41.64000 543.000
41.68000 537.000
41.72000 566.000
41.76000 560.000
41.80000 517.000
41.84000 546.000
41.88000 631.000
41.92000 531.000
41.96000 567.000
42.00000 537.000
42.04000 588.000
42.08000 588.000
42.12000 604.000
42.16000 615.000
42.20000 618.000
42.24000 563.000
42.28000 624.000
42.32000 576.000
42.36000 601.000
42.40000 579.000
42.44000 608.000
42.48000 585.000
42.52000 573.000
42.56000 613.000
42.60000 628.000
42.64000 615.000
42.68000 624.000
42.72000 644.000
42.76000 619.000
42.80000 678.000
42.84000 631.000
42.88000 682.000
42.92000 661.000
42.96000 671.000
43.00000 690.000
43.04000 650.000
43.08000 640.000
43.12000 611.000
43.16000 586.000
43.20000 562.000
43.24000 550.000
43.28000 569.000
43.32000 533.000
43.36000 590.000
43.40000 535.000
43.44000 510.000
43.48000 534.000
43.52000 545.000
43.56000 527.000
43.60000 543.000
43.64000 523.000
43.68000 514.000
43.72000 528.000
43.76000 553.000
43.80000 515.000
43.84000 527.000
43.88000 487.000
43.92000 497.000
43.96000 515.000
44.00000 539.000
44.04000 507.000
44.08000 502.000
44.12000 510.000
44.16000 552.000
44.20000 519.000
44.24000 536.000
44.28000 500.000
44.32000 514.000
44.36000 558.000
44.40000 506.000
44.44000 578.000
44.48000 544.000
44.52000 517.000
44.56000 518.000
44.60000 518.000
44.64000 523.000
44.68000 553.000
44.72000 535.000
44.76000 563.000
44.80000 547.000
44.84000 528.000
44.88000 533.000
44.92000 514.000
44.96000 572.000
45.00000 554.000
45.04000 551.000
45.08000 498.000
45.12000 581.000
45.16000 525.000
45.20000 533.000
45.24000 483.000
45.28000 522.000
45.32000 535.000
45.36000 538.000
45.40000 552.000
45.44000 528.000
45.48000 502.000
45.52000 552.000
45.56000 541.000
45.60000 589.000
45.64000 582.000
45.68000 577.000
45.72000 588.000
45.76000 552.000
45.80000 599.000
45.84000 549.000
45.88000 556.000
45.92000 603.000
45.96000 584.000
46.00000 560.000
46.04000 570.000
46.08000 538.000
46.12000 526.000
46.16000 524.000
46.20000 546.000
46.24000 493.000
46.28000 560.000
46.32000 513.000
46.36000 508.000
46.40000 547.000
46.44000 505.000
46.48000 491.000
46.52000 523.000
46.56000 443.000
46.60000 521.000
46.64000 488.000
46.68000 495.000
46.72000 512.000
46.76000 509.000
46.80000 497.000
46.84000 484.000
46.88000 491.000
46.92000 443.000
46.96000 553.000
47.00000 460.000
47.04000 492.000
47.08000 447.000
47.12000 491.000
47.16000 497.000
47.20000 488.000
47.24000 466.000
47.28000 466.000
47.32000 476.000
47.36000 455.000
47.40000 444.000
47.44000 452.000
47.48000 460.000
47.52000 478.000
47.56000 465.000
47.60000 461.000
47.64000 503.000
47.68000 496.000
47.72000 468.000
47.76000 461.000
47.80000 491.000
47.84000 454.000
47.88000 468.000
47.92000 430.000
47.96000 460.000
48.00000 456.000
48.04000 479.000
48.08000 454.000
48.12000 482.000
48.16000 498.000
48.20000 524.000
48.24000 470.000
48.28000 483.000
48.32000 505.000
48.36000 481.000
48.40000 486.000
48.44000 484.000
48.48000 452.000
48.52000 508.000
48.56000 449.000
48.60000 487.000
48.64000 491.000
48.68000 458.000
48.72000 465.000
48.76000 498.000
48.80000 482.000
48.84000 486.000
48.88000 454.000
48.92000 440.000
48.96000 446.000
49.00000 486.000
49.04000 493.000
49.08000 513.000
49.12000 454.000
49.16000 481.000
49.20000 454.000
49.24000 482.000
49.28000 440.000
49.32000 455.000
49.36000 463.000
49.40000 469.000
49.44000 458.000
49.48000 432.000
49.52000 466.000
49.56000 472.000
49.60000 492.000
49.64000 470.000
49.68000 425.000
49.72000 497.000
49.76000 489.000
49.80000 458.000
49.84000 430.000
49.88000 419.000
49.92000 476.000
49.96000 467.000
50.00000 450.000
50.04000 502.000
50.08000 466.000
50.12000 478.000
50.16000 482.000
50.20000 462.000
50.24000 463.000
50.28000 437.000
50.32000 448.000
50.36000 498.000
50.40000 528.000
50.44000 461.000
50.48000 492.000
50.52000 464.000
50.56000 502.000
50.60000 518.000
50.64000 506.000
50.68000 480.000
50.72000 492.000
50.76000 464.000
50.80000 492.000
50.84000 487.000
50.88000 475.000
50.92000 495.000
50.96000 453.000
51.00000 451.000
51.04000 473.000
51.08000 478.000
51.12000 441.000
51.16000 458.000
51.20000 477.000
51.24000 494.000
51.28000 465.000
51.32000 476.000
51.36000 513.000
51.40000 477.000
51.44000 507.000
51.48000 493.000
51.52000 503.000
51.56000 528.000
51.60000 521.000
51.64000 581.000
51.68000 561.000
51.72000 561.000
51.76000 605.000
51.80000 607.000
51.84000 601.000
51.88000 547.000
51.92000 535.000
51.96000 504.000
52.00000 574.000
52.04000 525.000
52.08000 539.000
52.12000 549.000
52.16000 525.000
52.20000 486.000
52.24000 463.000
52.28000 422.000
52.32000 453.000
52.36000 444.000
52.40000 445.000
52.44000 484.000
52.48000 444.000
52.52000 459.000
52.56000 407.000
52.60000 460.000
52.64000 472.000
52.68000 449.000
52.72000 449.000
52.76000 435.000
52.80000 458.000
52.84000 445.000
52.88000 465.000
52.92000 430.000
52.96000 431.000
53.00000 456.000
53.04000 453.000
53.08000 440.000
53.12000 476.000
53.16000 457.000
53.20000 449.000
53.24000 461.000
53.28000 478.000
53.32000 464.000
53.36000 447.000
53.40000 458.000
53.44000 457.000
53.48000 447.000
53.52000 456.000
53.56000 462.000
53.60000 427.000
53.64000 454.000
53.68000 431.000
53.72000 442.000
53.76000 436.000
53.80000 466.000
53.84000 460.000
53.88000 430.000
53.92000 483.000
53.96000 452.000
54.00000 462.000
54.04000 479.000
54.08000 425.000
54.12000 446.000
54.16000 449.000
54.20000 382.000
54.24000 422.000
54.28000 488.000
54.32000 433.000
54.36000 436.000
54.40000 420.000
54.44000 474.000
54.48000 459.000
54.52000 413.000
54.56000 438.000
54.60000 419.000
54.64000 466.000
54.68000 407.000
54.72000 449.000
54.76000 413.000
54.80000 467.000
54.84000 447.000
54.88000 459.000
54.92000 456.000
54.96000 431.000
55.00000 434.000
55.04000 442.000
55.08000 473.000
55.12000 476.000
55.16000 463.000
55.20000 448.000
55.24000 469.000
55.28000 483.000
55.32000 450.000
55.36000 412.000
55.40000 452.000
55.44000 433.000
55.48000 470.000
55.52000 440.000
55.56000 442.000
55.60000 431.000
55.64000 443.000
55.68000 444.000
55.72000 456.000
55.76000 386.000
55.80000 443.000
55.84000 446.000
55.88000 450.000
55.92000 401.000
55.96000 432.000
56.00000 463.000
56.04000 460.000
56.08000 442.000
56.12000 447.000
56.16000 459.000
56.20000 476.000
56.24000 438.000
56.28000 431.000
56.32000 472.000
56.36000 433.000
56.40000 449.000
56.44000 416.000
56.48000 422.000
56.52000 430.000
56.56000 451.000
56.60000 440.000
56.64000 475.000
56.68000 449.000
56.72000 440.000
56.76000 453.000
56.80000 442.000
56.84000 453.000
56.88000 440.000
56.92000 433.000
56.96000 451.000
57.00000 426.000
57.04000 436.000
57.08000 430.000
57.12000 422.000
57.16000 427.000
57.20000 468.000
57.24000 442.000
57.28000 422.000
57.32000 427.000
57.36000 411.000
57.40000 463.000
57.44000 437.000
57.48000 441.000
57.52000 413.000
57.56000 448.000
57.60000 413.000
57.64000 482.000
57.68000 396.000
57.72000 441.000
57.76000 401.000
57.80000 428.000
57.84000 462.000
57.88000 449.000
57.92000 442.000
57.96000 437.000
58.00000 439.000
58.04000 459.000
58.08000 463.000
58.12000 471.000
58.16000 453.000
58.20000 462.000
58.24000 457.000
58.28000 451.000
58.32000 440.000
58.36000 449.000
58.40000 446.000
58.44000 446.000
58.48000 447.000
58.52000 436.000
58.56000 457.000
58.60000 454.000
58.64000 469.000
58.68000 436.000
58.72000 458.000
58.76000 457.000
58.80000 425.000
58.84000 460.000
58.88000 450.000
58.92000 457.000
58.96000 456.000
59.00000 459.000
59.04000 449.000
59.08000 431.000
59.12000 437.000
59.16000 452.000
59.20000 433.000
59.24000 439.000
59.28000 465.000
59.32000 466.000
59.36000 440.000
59.40000 427.000
59.44000 421.000
59.48000 441.000
59.52000 467.000
59.56000 462.000
59.60000 457.000
59.64000 443.000
59.68000 455.000
59.72000 421.000
59.76000 470.000
59.80000 437.000
59.84000 450.000
59.88000 461.000
59.92000 417.000