File: XRD/46.xy
5.00000 1429.000
5.04000 1541.000
5.08000 1480.000
5.12000 1433.000
5.16000 1434.000
5.20000 1460.000
5.24000 1431.000
5.28000 1382.000
5.32000 1382.000
5.36000 1335.000
5.40000 1355.000
5.44000 1343.000
5.48000 1473.000
5.52000 1371.000
5.56000 1333.000
5.60000 1320.000
5.64000 1222.000
5.68000 1228.000
5.72000 1279.000
5.76000 1264.000
5.80000 1269.000
5.84000 1266.000
5.88000 1269.000
5.92000 1318.000
5.96000 1227.000
6.00000 1168.000
6.04000 1151.000
6.08000 1255.000
6.12000 1167.000
6.16000 1232.000
6.20000 1171.000
6.24000 1189.000
6.28000 1220.000
6.32000 1166.000
6.36000 1136.000
6.40000 1119.000
6.44000 1137.000
6.48000 1141.000
6.52000 1050.000
6.56000 1077.000
6.60000 1131.000
6.64000 1188.000
6.68000 1151.000
6.72000 1113.000
6.76000 1061.000
6.80000 1062.000
6.84000 1115.000
6.88000 1120.000
6.92000 1042.000
6.96000 1021.000
7.00000 1060.000
7.04000 1057.000
7.08000 1005.000
7.12000 1090.000
7.16000 1017.000
7.20000 1046.000
7.24000 967.000
7.28000 1035.000
7.32000 1028.000
7.36000 1071.000
7.40000 1021.000
7.44000 993.000
7.48000 984.000
7.52000 1003.000
7.56000 1023.000
7.60000 1013.000
7.64000 1006.000
7.68000 931.000
7.72000 994.000
7.76000 992.000
7.80000 1013.000
7.84000 966.000
7.88000 1006.000
7.92000 1004.000
7.96000 1002.000
8.00000 1007.000
8.04000 996.000
8.08000 1031.000
8.12000 1039.000
8.16000 1116.000
8.20000 1082.000
8.24000 1188.000
8.28000 1135.000
8.32000 1193.000
8.36000 1173.000
8.40000 1095.000
8.44000 1001.000
8.48000 1075.000
8.52000 985.000
8.56000 938.000
8.60000 906.000
8.64000 863.000
8.68000 858.000
8.72000 866.000
8.76000 855.000
8.80000 831.000
8.84000 854.000
8.88000 820.000
8.92000 803.000
8.96000 817.000
9.00000 816.000
9.04000 879.000
9.08000 868.000
9.12000 825.000
9.16000 831.000
9.20000 761.000
9.24000 829.000
9.28000 739.000
9.32000 814.000
9.36000 758.000
9.40000 802.000
9.44000 811.000
9.48000 779.000
9.52000 758.000
9.56000 789.000
9.60000 791.000
9.64000 774.000
9.68000 791.000
9.72000 779.000
9.76000 777.000
9.80000 805.000
9.84000 741.000
9.88000 743.000
9.92000 757.000
9.96000 738.000
10.00000 807.000
10.04000 731.000
10.08000 773.000
10.12000 676.000
10.16000 730.000
10.20000 757.000
10.24000 735.000
10.28000 704.000
10.32000 750.000
10.36000 722.000
10.40000 696.000
10.44000 724.000
10.48000 687.000
10.52000 741.000
10.56000 741.000
10.60000 743.000
10.64000 764.000
10.68000 702.000
10.72000 709.000
10.76000 698.000
10.80000 698.000
10.84000 718.000
10.88000 670.000
10.92000 736.000
10.96000 739.000
11.00000 706.000
11.04000 750.000
11.08000 661.000
11.12000 731.000
11.16000 666.000
11.20000 690.000
11.24000 707.000
11.28000 726.000
11.32000 748.000
11.36000 702.000
11.40000 717.000
11.44000 752.000
11.48000 695.000
11.52000 758.000
11.56000 712.000
11.60000 755.000
11.64000 712.000
11.68000 755.000
11.72000 681.000
11.76000 762.000
11.80000 766.000
11.84000 756.000
11.88000 754.000
11.92000 794.000
11.96000 900.000
12.00000 815.000
12.04000 797.000
12.08000 811.000
12.12000 801.000
12.16000 829.000
12.20000 811.000
12.24000 881.000
12.28000 777.000
12.32000 786.000
12.36000 748.000
12.40000 764.000
12.44000 838.000
12.48000 822.000
12.52000 816.000
12.56000 894.000
12.60000 913.000
12.64000 932.000
12.68000 988.000
12.72000 1025.000
12.76000 1026.000
12.80000 1034.000
12.84000 1065.000
12.88000 980.000
12.92000 977.000
12.96000 972.000
13.00000 855.000
13.04000 795.000
13.08000 772.000
13.12000 689.000
13.16000 718.000
13.20000 678.000
13.24000 660.000
13.28000 665.000
13.32000 687.000
13.36000 641.000
13.40000 656.000
13.44000 652.000
13.48000 658.000
13.52000 626.000
13.56000 670.000
13.60000 636.000
13.64000 663.000
13.68000 603.000
13.72000 651.000
13.76000 640.000
13.80000 637.000
13.84000 644.000
13.88000 678.000
13.92000 611.000
13.96000 652.000
14.00000 658.000
14.04000 675.000
14.08000 704.000
14.12000 643.000
14.16000 692.000
14.20000 663.000
14.24000 661.000
14.28000 629.000
14.32000 664.000
14.36000 653.000
14.40000 618.000
14.44000 719.000
14.48000 661.000
14.52000 684.000
14.56000 669.000
14.60000 689.000
14.64000 660.000
14.68000 692.000
14.72000 716.000
14.76000 720.000
14.80000 700.000
14.84000 709.000
14.88000 702.000
14.92000 677.000
14.96000 719.000
15.00000 711.000
15.04000 720.000
15.08000 713.000
15.12000 634.000
15.16000 673.000
15.20000 664.000
15.24000 661.000
15.28000 712.000
15.32000 696.000
15.36000 779.000
15.40000 693.000
15.44000 656.000
15.48000 714.000
15.52000 702.000
15.56000 725.000
15.60000 707.000
15.64000 683.000
15.68000 685.000
15.72000 722.000
15.76000 758.000
15.80000 694.000
15.84000 721.000
15.88000 704.000
15.92000 702.000
15.96000 731.000
16.00000 703.000
16.04000 740.000
16.08000 757.000
16.12000 741.000
16.16000 767.000
16.20000 746.000
16.24000 757.000
16.28000 734.000
16.32000 800.000
16.36000 749.000
16.40000 805.000
16.44000 826.000
16.48000 845.000
16.52000 868.000
16.56000 861.000
16.60000 910.000
16.64000 890.000
16.68000 897.000
16.72000 912.000
16.76000 894.000
16.80000 861.000
16.84000 927.000
16.88000 854.000
16.92000 805.000
16.96000 831.000
17.00000 777.000
17.04000 810.000
17.08000 771.000
17.12000 799.000
17.16000 789.000
17.20000 775.000
17.24000 757.000
17.28000 798.000
17.32000 836.000
17.36000 823.000
17.40000 771.000
17.44000 799.000
17.48000 872.000
17.52000 808.000
17.56000 856.000
17.60000 818.000
17.64000 815.000
17.68000 848.000
17.72000 790.000
17.76000 809.000
17.80000 858.000
17.84000 858.000
17.88000 790.000
17.92000 854.000
17.96000 850.000
18.00000 831.000
18.04000 863.000
18.08000 815.000
18.12000 849.000
18.16000 908.000
18.20000 839.000
18.24000 823.000
18.28000 859.000
18.32000 875.000
18.36000 838.000
18.40000 846.000
18.44000 819.000
18.48000 870.000
18.52000 896.000
18.56000 883.000
18.60000 916.000
18.64000 963.000
18.68000 937.000
18.72000 876.000
18.76000 931.000
18.80000 880.000
18.84000 904.000
18.88000 927.000
18.92000 945.000
18.96000 886.000
19.00000 932.000
19.04000 899.000
19.08000 912.000
19.12000 947.000
19.16000 981.000
19.20000 919.000
19.24000 936.000
19.28000 944.000
19.32000 913.000
19.36000 929.000
19.40000 970.000
19.44000 976.000
19.48000 977.000
19.52000 966.000
19.56000 932.000
19.60000 931.000
19.64000 960.000
19.68000 966.000
19.72000 981.000
19.76000 1049.000
19.80000 1015.000
19.84000 990.000
19.88000 1016.000
19.92000 1010.000
19.96000 1049.000
20.00000 1006.000
20.04000 983.000
20.08000 1021.000
20.12000 992.000
20.16000 1009.000
20.20000 1099.000
20.24000 1087.000
20.28000 1043.000
20.32000 1057.000
20.36000 1053.000
20.40000 1095.000
20.44000 1034.000
20.48000 1102.000
20.52000 1074.000
20.56000 1097.000
20.60000 1148.000
20.64000 1108.000
20.68000 1142.000
20.72000 1146.000
20.76000 1130.000
20.80000 1169.000
20.84000 1189.000
20.88000 1171.000
20.92000 1226.000
20.96000 1206.000
21.00000 1208.000
21.04000 1225.000
21.08000 1151.000
21.12000 1192.000
21.16000 1259.000
21.20000 1249.000
21.24000 1212.000
21.28000 1219.000
21.32000 1174.000
21.36000 1097.000
21.40000 1136.000
21.44000 1149.000
21.48000 1154.000
21.52000 1116.000
21.56000 1214.000
21.60000 1197.000
21.64000 1226.000
21.68000 1098.000
21.72000 1215.000
21.76000 1164.000
21.80000 1226.000
21.84000 1189.000
21.88000 1187.000
21.92000 1164.000
21.96000 1225.000
22.00000 1160.000
22.04000 1184.000
22.08000 1209.000
22.12000 1182.000
22.16000 1193.000
22.20000 1209.000
22.24000 1173.000
22.28000 1228.000
22.32000 1207.000
22.36000 1229.000
22.40000 1255.000
22.44000 1237.000
22.48000 1219.000
22.52000 1263.000
22.56000 1244.000
22.60000 1211.000
22.64000 1302.000
22.68000 1260.000
22.72000 1230.000
22.76000 1257.000
22.80000 1270.000
22.84000 1256.000
22.88000 1220.000
22.92000 1245.000
22.96000 1218.000
23.00000 1241.000
23.04000 1274.000
23.08000 1227.000
23.12000 1255.000
23.16000 1227.000
23.20000 1170.000
23.24000 1250.000
23.28000 1291.000
23.32000 1198.000
23.36000 1189.000
23.40000 1297.000
23.44000 1267.000
23.48000 1303.000
23.52000 1238.000
23.56000 1320.000
23.60000 1293.000
23.64000 1270.000
23.68000 1287.000
23.72000 1233.000
23.76000 1304.000
23.80000 1245.000
23.84000 1341.000
23.88000 1309.000
23.92000 1322.000
23.96000 1304.000
24.00000 1350.000
24.04000 1345.000
24.08000 1421.000
24.12000 1320.000
24.16000 1425.000
24.20000 1401.000
24.24000 1411.000
24.28000 1465.000
24.32000 1501.000
24.36000 1464.000
24.40000 1466.000
24.44000 1462.000
24.48000 1460.000
24.52000 1416.000
24.56000 1359.000
24.60000 1357.000
24.64000 1423.000
24.68000 1400.000
24.72000 1441.000
24.76000 1516.000
24.80000 1488.000
24.84000 1568.000
24.88000 1534.000
24.92000 1675.000
24.96000 1795.000
25.00000 1917.000
25.04000 2062.000
25.08000 2206.000
25.12000 2363.000
25.16000 2426.000
25.20000 2576.000
25.24000 2596.000
25.28000 2483.000
25.32000 2533.000
25.36000 2341.000
25.40000 2081.000
25.44000 1963.000
25.48000 1816.000
25.52000 1764.000
25.56000 1715.000
25.60000 1703.000
25.64000 1642.000
25.68000 1636.000
25.72000 1650.000
25.76000 1660.000
25.80000 1616.000
25.84000 1621.000
25.88000 1678.000
25.92000 1636.000
25.96000 1618.000
26.00000 1538.000
26.04000 1538.000
26.08000 1436.000
26.12000 1389.000
26.16000 1395.000
26.20000 1337.000
26.24000 1311.000
26.28000 1353.000
26.32000 1246.000
26.36000 1280.000
26.40000 1294.000
26.44000 1247.000
26.48000 1250.000
26.52000 1238.000
26.56000 1225.000
26.60000 1231.000
26.64000 1220.000
26.68000 1217.000
26.72000 1228.000
26.76000 1256.000
26.80000 1224.000
26.84000 1234.000
26.88000 1250.000
26.92000 1238.000
26.96000 1297.000
27.00000 1230.000
27.04000 1268.000
27.08000 1261.000
27.12000 1268.000
27.16000 1391.000
27.20000 1337.000
27.24000 1356.000
27.28000 1326.000
27.32000 1369.000
27.36000 1350.000
27.40000 1425.000
27.44000 1441.000
27.48000 1468.000
27.52000 1562.000
27.56000 1505.000
27.60000 1511.000
27.64000 1479.000
27.68000 1438.000
27.72000 1447.000
27.76000 1371.000
27.80000 1364.000
27.84000 1263.000
27.88000 1255.000
27.92000 1219.000
27.96000 1251.000
28.00000 1204.000
28.04000 1263.000
28.08000 1194.000
28.12000 1187.000
28.16000 1223.000
28.20000 1120.000
28.24000 1181.000
28.28000 1135.000
28.32000 1177.000
28.36000 1199.000
28.40000 1156.000
28.44000 1140.000
28.48000 1144.000
28.52000 1125.000
28.56000 1145.000
28.60000 1117.000
28.64000 1081.000
28.68000 1127.000
28.72000 1153.000
28.76000 1102.000
28.80000 1132.000
28.84000 1155.000
28.88000 1122.000
28.92000 1072.000
28.96000 1030.000
29.00000 1154.000
29.04000 1108.000
29.08000 1114.000
29.12000 1158.000
29.16000 1052.000
29.20000 1100.000
29.24000 1158.000
29.28000 1043.000
29.32000 1128.000
29.36000 1200.000
29.40000 1168.000
29.44000 1155.000
29.48000 1228.000
29.52000 1262.000
29.56000 1281.000
29.60000 1248.000
29.64000 1347.000
29.68000 1351.000
29.72000 1387.000
29.76000 1353.000
29.80000 1405.000
29.84000 1368.000
29.88000 1303.000
29.92000 1374.000
29.96000 1280.000
30.00000 1268.000
30.04000 1194.000
30.08000 1154.000
30.12000 1136.000
30.16000 1128.000
30.20000 1011.000
30.24000 1137.000
30.28000 1076.000
30.32000 1127.000
30.36000 1061.000
30.40000 1141.000
30.44000 1021.000
30.48000 1072.000
30.52000 1132.000
30.56000 989.000
30.60000 1049.000
30.64000 997.000
30.68000 960.000
30.72000 1035.000
30.76000 1035.000
30.80000 1044.000
30.84000 927.000
30.88000 981.000
30.92000 996.000
30.96000 992.000
31.00000 999.000
31.04000 1037.000
31.08000 940.000
31.12000 991.000
31.16000 1088.000
31.20000 966.000
31.24000 1015.000
31.28000 1016.000
31.32000 909.000
31.36000 1018.000
31.40000 981.000
31.44000 993.000
31.48000 986.000
31.52000 975.000
31.56000 976.000
31.60000 981.000
31.64000 950.000
31.68000 1012.000
31.72000 996.000
31.76000 1047.000
31.80000 968.000
31.84000 1022.000
31.88000 954.000
31.92000 955.000
31.96000 999.000
32.00000 1045.000
32.04000 1007.000
32.08000 1049.000
32.12000 1072.000
32.16000 1094.000
32.20000 1031.000
32.24000 1023.000
32.28000 1057.000
32.32000 1130.000
32.36000 1145.000
32.40000 1108.000
32.44000 1173.000
32.48000 1143.000
32.52000 1137.000
32.56000 1124.000
32.60000 1136.000
32.64000 1035.000
32.68000 1047.000
32.72000 1046.000
32.76000 1005.000
32.80000 1023.000
32.84000 972.000
32.88000 992.000
32.92000 960.000
32.96000 965.000
33.00000 965.000
33.04000 934.000
33.08000 949.000
33.12000 942.000
33.16000 911.000
33.20000 932.000
33.24000 943.000
33.28000 868.000
33.32000 858.000
33.36000 853.000
33.40000 890.000
33.44000 839.000
33.48000 842.000
33.52000 854.000
33.56000 853.000
33.60000 787.000
33.64000 833.000
33.68000 818.000
33.72000 800.000
33.76000 776.000
33.80000 817.000
33.84000 844.000
33.88000 810.000
33.92000 832.000
33.96000 789.000
34.00000 803.000
34.04000 823.000
34.08000 791.000
34.12000 786.000
34.16000 817.000
34.20000 748.000
34.24000 748.000
34.28000 768.000
34.32000 749.000
34.36000 780.000
34.40000 744.000
34.44000 751.000
34.48000 751.000
34.52000 776.000
34.56000 762.000
34.60000 813.000
34.64000 706.000
34.68000 740.000
34.72000 688.000
34.76000 710.000
34.80000 758.000
34.84000 720.000
34.88000 762.000
34.92000 765.000
34.96000 710.000
35.00000 737.000
35.04000 679.000
35.08000 766.000
35.12000 706.000
35.16000 681.000
35.20000 736.000
35.24000 718.000
35.28000 739.000
35.32000 738.000
35.36000 690.000
35.40000 737.000
35.44000 731.000
35.48000 728.000
35.52000 712.000
35.56000 720.000
35.60000 655.000
35.64000 671.000
35.68000 704.000
35.72000 695.000
35.76000 662.000
35.80000 661.000
35.84000 664.000
35.88000 688.000
35.92000 625.000
35.96000 633.000
36.00000 645.000
36.04000 669.000
36.08000 612.000
36.12000 633.000
36.16000 648.000
36.20000 679.000
36.24000 700.000
36.28000 690.000
36.32000 645.000
36.36000 634.000
36.40000 638.000
36.44000 645.000
36.48000 611.000
36.52000 642.000
36.56000 638.000
36.60000 607.000
36.64000 620.000
36.68000 688.000
36.72000 651.000
36.76000 633.000
36.80000 660.000
36.84000 674.000
36.88000 642.000
36.92000 642.000
36.96000 618.000
37.00000 643.000
37.04000 578.000
37.08000 641.000
37.12000 618.000
37.16000 587.000
37.20000 595.000
37.24000 570.000
37.28000 613.000
37.32000 608.000
37.36000 599.000
37.40000 559.000
37.44000 594.000
37.48000 592.000
37.52000 541.000
37.56000 545.000
37.60000 542.000
37.64000 561.000
37.68000 539.000
37.72000 582.000
37.76000 556.000
37.80000 562.000
37.84000 591.000
37.88000 594.000
37.92000 539.000
37.96000 566.000
38.00000 580.000
38.04000 568.000
38.08000 560.000
38.12000 558.000
38.16000 551.000
38.20000 537.000
38.24000 551.000
38.28000 530.000
38.32000 578.000
38.36000 570.000
38.40000 584.000
38.44000 579.000
38.48000 524.000
38.52000 584.000
38.56000 556.000
38.60000 594.000
38.64000 616.000
38.68000 611.000
38.72000 597.000
38.76000 570.000
38.80000 586.000
38.84000 597.000
38.88000 601.000
38.92000 608.000
38.96000 561.000
39.00000 555.000
39.04000 592.000
39.08000 602.000
39.12000 525.000
39.16000 566.000
39.20000 547.000
39.24000 543.000
39.28000 564.000
39.32000 555.000
39.36000 612.000
39.40000 497.000
39.44000 556.000
39.48000 543.000
39.52000 558.000
39.56000 566.000
39.60000 544.000
39.64000 513.000
39.68000 503.000
39.72000 519.000
39.76000 565.000
39.80000 547.000
39.84000 545.000
39.88000 536.000
39.92000 534.000
39.96000 552.000
40.00000 565.000
40.04000 549.000
40.08000 538.000
40.12000 548.000
40.16000 538.000
40.20000 528.000
40.24000 568.000
40.28000 530.000
40.32000 529.000
40.36000 501.000
40.40000 589.000
40.44000 552.000
40.48000 539.000
40.52000 567.000
40.56000 573.000
40.60000 553.000
40.64000 507.000
40.68000 532.000
40.72000 514.000
40.76000 498.000
40.80000 565.000
40.84000 592.000
40.88000 557.000
40.92000 546.000
40.96000 577.000
41.00000 535.000
41.04000 531.000
41.08000 519.000
41.12000 549.000
41.16000 531.000
41.20000 531.000
41.24000 549.000
41.28000 552.000
41.32000 539.000
41.36000 551.000
41.40000 524.000
41.44000 536.000
41.48000 532.000
41.52000 556.000
41.56000 545.000
41.60000 539.000
41.64000 519.000
41.68000 498.000
41.72000 530.000
41.76000 573.000
41.80000 499.000
41.84000 536.000
41.88000 556.000
41.92000 584.000
41.96000 564.000
42.00000 535.000
42.04000 590.000
42.08000 585.000
42.12000 598.000
42.16000 576.000
42.20000 575.000
42.24000 620.000
42.28000 614.000
42.32000 620.000
42.36000 591.000
42.40000 589.000
42.44000 600.000
42.48000 579.000
42.52000 614.000
42.56000 619.000
42.60000 605.000
42.64000 624.000
42.68000 622.000
42.72000 620.000
42.76000 629.000
42.80000 633.000
42.84000 627.000
42.88000 641.000
42.92000 676.000
42.96000 650.000
43.00000 620.000
43.04000 683.000
43.08000 694.000
43.12000 652.000
43.16000 644.000
43.20000 591.000
43.24000 625.000
43.28000 567.000
43.32000 611.000
43.36000 600.000
43.40000 562.000
43.44000 548.000
43.48000 540.000
43.52000 521.000
43.56000 565.000
43.60000 520.000
43.64000 568.000
43.68000 531.000
43.72000 513.000
43.76000 541.000
43.80000 492.000
43.84000 524.000
43.88000 499.000
43.92000 518.000
43.96000 537.000
44.00000 520.000
44.04000 514.000
44.08000 475.000
44.12000 513.000
44.16000 535.000
44.20000 545.000
44.24000 520.000
44.28000 519.000
44.32000 552.000
44.36000 476.000
44.40000 541.000
44.44000 572.000
44.48000 555.000
44.52000 522.000
44.56000 542.000
44.60000 525.000
44.64000 523.000
44.68000 547.000
44.72000 558.000
44.76000 536.000
44.80000 519.000
44.84000 522.000
44.88000 539.000
44.92000 529.000
44.96000 502.000
45.00000 543.000
45.04000 533.000
45.08000 514.000
45.12000 535.000
45.16000 504.000
45.20000 547.000
45.24000 561.000
45.28000 532.000
45.32000 514.000
45.36000 533.000
45.40000 522.000
45.44000 527.000
45.48000 546.000
45.52000 505.000
45.56000 517.000
45.60000 540.000
45.64000 571.000
45.68000 567.000
45.72000 623.000
45.76000 575.000
45.80000 559.000
45.84000 519.000
45.88000 567.000
45.92000 610.000
45.96000 555.000
46.00000 583.000
46.04000 625.000
46.08000 601.000
46.12000 618.000
46.16000 542.000
46.20000 535.000
46.24000 522.000
46.28000 523.000
46.32000 514.000
46.36000 514.000
46.40000 522.000
46.44000 510.000
46.48000 493.000
46.52000 539.000
46.56000 513.000
46.60000 530.000
46.64000 515.000
46.68000 481.000
46.72000 480.000
46.76000 508.000
46.80000 522.000
46.84000 481.000
46.88000 472.000
46.92000 469.000
46.96000 458.000
47.00000 518.000
47.04000 490.000
47.08000 498.000
47.12000 484.000
47.16000 492.000
47.20000 487.000
47.24000 456.000
47.28000 476.000
47.32000 457.000
47.36000 453.000
47.40000 471.000
47.44000 487.000
47.48000 475.000
47.52000 482.000
47.56000 458.000
47.60000 511.000
47.64000 494.000
47.68000 472.000
47.72000 460.000
47.76000 482.000
47.80000 506.000
47.84000 483.000
47.88000 454.000
47.92000 510.000
47.96000 489.000
48.00000 444.000
48.04000 469.000
48.08000 450.000
48.12000 487.000
48.16000 520.000
48.20000 506.000
48.24000 466.000
48.28000 483.000
48.32000 441.000
48.36000 499.000
48.40000 456.000
48.44000 491.000
48.48000 496.000
48.52000 481.000
48.56000 437.000
48.60000 465.000
48.64000 484.000
48.68000 448.000
48.72000 480.000
48.76000 480.000
48.80000 437.000
48.84000 456.000
48.88000 491.000
48.92000 478.000
48.96000 435.000
49.00000 472.000
49.04000 454.000
49.08000 447.000
49.12000 453.000
49.16000 461.000
49.20000 482.000
49.24000 467.000
49.28000 458.000
49.32000 464.000
49.36000 448.000
49.40000 438.000
49.44000 486.000
49.48000 454.000
49.52000 457.000
49.56000 457.000
49.60000 487.000
49.64000 491.000
49.68000 485.000
49.72000 498.000
49.76000 475.000
49.80000 447.000
49.84000 455.000
49.88000 479.000
49.92000 470.000
49.96000 483.000
50.00000 478.000
50.04000 491.000
50.08000 502.000
50.12000 475.000
50.16000 472.000
50.20000 450.000
50.24000 478.000
50.28000 443.000
50.32000 457.000
50.36000 457.000
50.40000 463.000
50.44000 485.000
50.48000 495.000
50.52000 456.000
50.56000 491.000
50.60000 521.000
50.64000 532.000
50.68000 436.000
50.72000 465.000
50.76000 492.000
50.80000 540.000
50.84000 470.000
50.88000 486.000
50.92000 465.000
50.96000 507.000
51.00000 457.000
51.04000 454.000
51.08000 479.000
51.12000 486.000
51.16000 497.000
51.20000 459.000
51.24000 453.000
51.28000 426.000
51.32000 477.000
51.36000 450.000
51.40000 485.000
51.44000 485.000
51.48000 483.000
51.52000 458.000
51.56000 505.000
51.60000 528.000
51.64000 541.000
51.68000 569.000
51.72000 524.000
51.76000 563.000
51.80000 585.000
51.84000 590.000
51.88000 575.000
51.92000 584.000
51.96000 564.000
52.00000 562.000
52.04000 523.000
52.08000 539.000
52.12000 508.000
52.16000 466.000
52.20000 518.000
52.24000 497.000
52.28000 478.000
52.32000 470.000
52.36000 478.000
52.40000 494.000
52.44000 474.000
52.48000 443.000
52.52000 454.000
52.56000 408.000
52.60000 420.000
52.64000 479.000
52.68000 455.000
52.72000 443.000
52.76000 457.000
52.80000 460.000
52.84000 462.000
52.88000 481.000
52.92000 468.000
52.96000 427.000
53.00000 448.000
53.04000 510.000
53.08000 445.000
53.12000 470.000
53.16000 488.000
53.20000 465.000
53.24000 473.000
53.28000 451.000
53.32000 502.000
53.36000 488.000
53.40000 483.000
53.44000 475.000
53.48000 418.000
53.52000 455.000
53.56000 425.000
53.60000 444.000
53.64000 469.000
53.68000 443.000
53.72000 422.000
53.76000 422.000
53.80000 438.000
53.84000 461.000
53.88000 439.000
53.92000 423.000
53.96000 446.000
54.00000 431.000
54.04000 450.000
54.08000 407.000
54.12000 465.000
54.16000 479.000
54.20000 454.000
54.24000 416.000
54.28000 466.000
54.32000 456.000
54.36000 403.000
54.40000 460.000
54.44000 419.000
54.48000 434.000
54.52000 421.000
54.56000 453.000
54.60000 431.000
54.64000 454.000
54.68000 462.000
54.72000 462.000
54.76000 506.000
54.80000 437.000
54.84000 483.000
54.88000 473.000
54.92000 471.000
54.96000 451.000
55.00000 464.000
55.04000 442.000
55.08000 449.000
55.12000 452.000
55.16000 424.000
55.20000 390.000
55.24000 460.000
55.28000 432.000
55.32000 452.000
55.36000 429.000
55.40000 467.000
55.44000 474.000
55.48000 441.000
55.52000 431.000
55.56000 444.000
55.60000 468.000
55.64000 416.000
55.68000 428.000
55.72000 410.000
55.76000 463.000
55.80000 406.000
55.84000 427.000
55.88000 435.000
55.92000 422.000
55.96000 456.000
56.00000 448.000
56.04000 437.000
56.08000 427.000
56.12000 470.000
56.16000 444.000
56.20000 408.000
56.24000 415.000
56.28000 452.000
56.32000 450.000
56.36000 443.000
56.40000 451.000
56.44000 406.000
56.48000 421.000
56.52000 430.000
56.56000 426.000
56.60000 449.000
56.64000 416.000
56.68000 404.000
56.72000 439.000
56.76000 420.000
56.80000 438.000
56.84000 422.000
56.88000 438.000
56.92000 411.000
56.96000 435.000
57.00000 410.000
57.04000 399.000
57.08000 443.000
57.12000 405.000
57.16000 431.000
57.20000 440.000
57.24000 439.000
57.28000 421.000
57.32000 455.000
57.36000 431.000
57.40000 440.000
57.44000 432.000
57.48000 439.000
57.52000 431.000
57.56000 464.000
57.60000 412.000
57.64000 426.000
57.68000 442.000
57.72000 418.000
57.76000 463.000
57.80000 409.000
57.84000 477.000
57.88000 443.000
57.92000 471.000
57.96000 438.000
58.00000 439.000
58.04000 444.000
58.08000 436.000
58.12000 478.000
58.16000 467.000
58.20000 462.000
58.24000 456.000
58.28000 454.000
58.32000 502.000
58.36000 418.000
58.40000 447.000
58.44000 469.000
58.48000 440.000
58.52000 502.000
58.56000 439.000
58.60000 425.000
58.64000 401.000
58.68000 465.000
58.72000 430.000
58.76000 439.000
58.80000 433.000
58.84000 424.000
58.88000 412.000
58.92000 434.000
58.96000 454.000
59.00000 433.000
59.04000 433.000
59.08000 475.000
59.12000 437.000
59.16000 433.000
59.20000 442.000
59.24000 406.000
59.28000 433.000
59.32000 442.000
59.36000 420.000
59.40000 439.000
59.44000 475.000
59.48000 425.000
59.52000 432.000
59.56000 420.000
59.60000 439.000
59.64000 448.000
59.68000 446.000
59.72000 444.000
59.76000 435.000
59.80000 396.000
59.84000 470.000
59.88000 433.000
59.92000 427.000