File: XRD/47.xy
5.00000 1488.000
5.04000 1486.000
5.08000 1487.000
5.12000 1468.000
5.16000 1426.000
5.20000 1370.000
5.24000 1379.000
5.28000 1383.000
5.32000 1364.000
5.36000 1371.000
5.40000 1347.000
5.44000 1325.000
5.48000 1381.000
5.52000 1337.000
5.56000 1349.000
5.60000 1357.000
5.64000 1275.000
5.68000 1352.000
5.72000 1266.000
5.76000 1257.000
5.80000 1265.000
5.84000 1281.000
5.88000 1223.000
5.92000 1212.000
5.96000 1261.000
6.00000 1160.000
6.04000 1200.000
6.08000 1234.000
6.12000 1188.000
6.16000 1116.000
6.20000 1198.000
6.24000 1127.000
6.28000 1221.000
6.32000 1117.000
6.36000 1135.000
6.40000 1163.000
6.44000 1095.000
6.48000 1121.000
6.52000 1114.000
6.56000 1098.000
6.60000 1103.000
6.64000 1089.000
6.68000 1082.000
6.72000 1052.000
6.76000 1079.000
6.80000 1049.000
6.84000 1040.000
6.88000 1026.000
6.92000 1035.000
6.96000 1038.000
7.00000 998.000
7.04000 1007.000
7.08000 985.000
7.12000 1008.000
7.16000 1048.000
7.20000 1006.000
7.24000 976.000
7.28000 1010.000
7.32000 992.000
7.36000 980.000
7.40000 964.000
7.44000 992.000
7.48000 939.000
7.52000 1032.000
7.56000 1060.000
7.60000 990.000
7.64000 973.000
7.68000 1020.000
7.72000 946.000
7.76000 950.000
7.80000 962.000
7.84000 958.000
7.88000 956.000
7.92000 1011.000
7.96000 945.000
8.00000 969.000
8.04000 1041.000
8.08000 1032.000
8.12000 1048.000
8.16000 1072.000
8.20000 1067.000
8.24000 1038.000
8.28000 1015.000
8.32000 989.000
8.36000 1048.000
8.40000 1057.000
8.44000 1050.000
8.48000 944.000
8.52000 907.000
8.56000 907.000
8.60000 957.000
8.64000 850.000
8.68000 887.000
8.72000 850.000
8.76000 866.000
8.80000 805.000
8.84000 888.000
8.88000 812.000
8.92000 834.000
8.96000 805.000
9.00000 834.000
9.04000 800.000
9.08000 844.000
9.12000 806.000
9.16000 793.000
9.20000 816.000
9.24000 793.000
9.28000 834.000
9.32000 795.000
9.36000 791.000
9.40000 808.000
9.44000 752.000
9.48000 825.000
9.52000 765.000
9.56000 810.000
9.60000 751.000
9.64000 730.000
9.68000 720.000
9.72000 735.000
9.76000 731.000
9.80000 744.000
9.84000 792.000
9.88000 738.000
9.92000 690.000
9.96000 767.000
10.00000 740.000
10.04000 720.000
10.08000 720.000
10.12000 754.000
10.16000 738.000
10.20000 741.000
10.24000 681.000
10.28000 766.000
10.32000 680.000
10.36000 753.000
10.40000 754.000
10.44000 740.000
10.48000 712.000
10.52000 710.000
10.56000 744.000
10.60000 680.000
10.64000 724.000
10.68000 689.000
10.72000 717.000
10.76000 731.000
10.80000 682.000
10.84000 699.000
10.88000 708.000
10.92000 668.000
10.96000 652.000
11.00000 728.000
11.04000 762.000
11.08000 707.000
11.12000 685.000
11.16000 671.000
11.20000 770.000
11.24000 762.000
11.28000 680.000
11.32000 656.000
11.36000 708.000
11.40000 713.000
11.44000 702.000
11.48000 694.000
11.52000 743.000
11.56000 748.000
11.60000 755.000
11.64000 723.000
11.68000 730.000
11.72000 756.000
11.76000 749.000
11.80000 769.000
11.84000 767.000
11.88000 782.000
11.92000 786.000
11.96000 842.000
12.00000 811.000
12.04000 825.000
12.08000 812.000
12.12000 837.000
12.16000 824.000
12.20000 806.000
12.24000 818.000
12.28000 815.000
12.32000 822.000
12.36000 817.000
12.40000 817.000
12.44000 832.000
12.48000 816.000
12.52000 896.000
12.56000 930.000
12.60000 936.000
12.64000 941.000
12.68000 990.000
12.72000 1011.000
12.76000 986.000
12.80000 1009.000
12.84000 1055.000
12.88000 1003.000
12.92000 968.000
12.96000 902.000
13.00000 890.000
13.04000 838.000
13.08000 796.000
13.12000 725.000
13.16000 732.000
13.20000 727.000
13.24000 684.000
13.28000 699.000
13.32000 686.000
13.36000 706.000
13.40000 636.000
13.44000 671.000
13.48000 672.000
13.52000 675.000
13.56000 653.000
13.60000 651.000
13.64000 616.000
13.68000 673.000
13.72000 669.000
13.76000 666.000
13.80000 683.000
13.84000 647.000
13.88000 640.000
13.92000 644.000
13.96000 668.000
14.00000 663.000
14.04000 650.000
14.08000 688.000
14.12000 646.000
14.16000 628.000
14.20000 659.000
14.24000 667.000
14.28000 695.000
14.32000 675.000
14.36000 678.000
14.40000 627.000
14.44000 687.000
14.48000 680.000
14.52000 642.000
14.56000 642.000
14.60000 669.000
14.64000 687.000
14.68000 663.000
14.72000 687.000
14.76000 631.000
14.80000 673.000
14.84000 670.000
14.88000 683.000
14.92000 651.000
14.96000 669.000
15.00000 719.000
15.04000 699.000
15.08000 625.000
15.12000 681.000
15.16000 717.000
15.20000 639.000
15.24000 673.000
15.28000 680.000
15.32000 692.000
15.36000 721.000
15.40000 660.000
15.44000 730.000
15.48000 616.000
15.52000 689.000
15.56000 739.000
15.60000 637.000
15.64000 629.000
15.68000 668.000
15.72000 745.000
15.76000 715.000
15.80000 662.000
15.84000 659.000
15.88000 711.000
15.92000 695.000
15.96000 726.000
16.00000 722.000
16.04000 741.000
16.08000 687.000
16.12000 711.000
16.16000 725.000
16.20000 736.000
16.24000 687.000
16.28000 722.000
16.32000 765.000
16.36000 735.000
16.40000 752.000
16.44000 815.000
16.48000 779.000
16.52000 777.000
16.56000 844.000
16.60000 850.000
16.64000 811.000
16.68000 810.000
16.72000 802.000
16.76000 852.000
16.80000 855.000
16.84000 840.000
16.88000 802.000
16.92000 842.000
16.96000 810.000
17.00000 861.000
17.04000 768.000
17.08000 768.000
17.12000 800.000
17.16000 783.000
17.20000 825.000
17.24000 766.000
17.28000 761.000
17.32000 823.000
17.36000 758.000
17.40000 800.000
17.44000 764.000
17.48000 817.000
17.52000 819.000
17.56000 829.000
17.60000 822.000
17.64000 840.000
17.68000 822.000
17.72000 805.000
17.76000 832.000
17.80000 884.000
17.84000 777.000
17.88000 809.000
17.92000 808.000
17.96000 845.000
18.00000 837.000
18.04000 815.000
18.08000 848.000
18.12000 855.000
18.16000 894.000
18.20000 817.000
18.24000 890.000
18.28000 832.000
18.32000 848.000
18.36000 886.000
18.40000 870.000
18.44000 863.000
18.48000 881.000
18.52000 873.000
18.56000 849.000
18.60000 893.000
18.64000 914.000
18.68000 817.000
18.72000 873.000
18.76000 930.000
18.80000 934.000
18.84000 917.000
18.88000 919.000
18.92000 867.000
18.96000 911.000
19.00000 977.000
19.04000 956.000
19.08000 902.000
19.12000 968.000
19.16000 875.000
19.20000 923.000
19.24000 921.000
19.28000 925.000
19.32000 910.000
19.36000 883.000
19.40000 956.000
19.44000 918.000
19.48000 953.000
19.52000 949.000
19.56000 954.000
19.60000 966.000
19.64000 978.000
19.68000 949.000
19.72000 987.000
19.76000 914.000
19.80000 958.000
19.84000 954.000
19.88000 985.000
19.92000 986.000
19.96000 1019.000
20.00000 1029.000
20.04000 1002.000
20.08000 1050.000
20.12000 1015.000
20.16000 1032.000
20.20000 1025.000
20.24000 1033.000
20.28000 1055.000
20.32000 1011.000
20.36000 980.000
20.40000 1073.000
20.44000 1103.000
20.48000 1026.000
20.52000 1110.000
20.56000 1121.000
20.60000 1087.000
20.64000 1124.000
20.68000 1155.000
20.72000 1143.000
20.76000 1154.000
20.80000 1148.000
20.84000 1178.000
20.88000 1180.000
20.92000 1276.000
20.96000 1220.000
21.00000 1239.000
21.04000 1182.000
21.08000 1209.000
21.12000 1201.000
21.16000 1208.000
21.20000 1216.000
21.24000 1154.000
21.28000 1181.000
21.32000 1148.000
21.36000 1181.000
21.40000 1177.000
21.44000 1154.000
21.48000 1219.000
21.52000 1124.000
21.56000 1169.000
21.60000 1076.000
21.64000 1188.000
21.68000 1123.000
21.72000 1196.000
21.76000 1094.000
21.80000 1182.000
21.84000 1149.000
21.88000 1158.000
21.92000 1209.000
21.96000 1201.000
22.00000 1179.000
22.04000 1174.000
22.08000 1137.000
22.12000 1195.000
22.16000 1188.000
22.20000 1177.000
22.24000 1219.000
22.28000 1217.000
22.32000 1144.000
22.36000 1219.000
22.40000 1237.000
22.44000 1179.000
22.48000 1221.000
22.52000 1215.000
22.56000 1232.000
22.60000 1219.000
22.64000 1223.000
22.68000 1255.000
22.72000 1333.000
22.76000 1271.000
22.80000 1253.000
22.84000 1283.000
22.88000 1203.000
22.92000 1313.000
22.96000 1231.000
23.00000 1276.000
23.04000 1254.000
23.08000 1246.000
23.12000 1212.000
23.16000 1260.000
23.20000 1290.000
23.24000 1259.000
23.28000 1212.000
23.32000 1195.000
23.36000 1252.000
23.40000 1230.000
23.44000 1297.000
23.48000 1234.000
23.52000 1266.000
23.56000 1320.000
23.60000 1309.000
23.64000 1283.000
23.68000 1306.000
23.72000 1256.000
23.76000 1225.000
23.80000 1270.000
23.84000 1291.000
23.88000 1307.000
23.92000 1264.000
23.96000 1269.000
24.00000 1292.000
24.04000 1346.000
24.08000 1330.000
24.12000 1347.000
24.16000 1376.000
24.20000 1376.000
24.24000 1469.000
24.28000 1438.000
24.32000 1418.000
24.36000 1320.000
24.40000 1488.000
24.44000 1427.000
24.48000 1431.000
24.52000 1396.000
24.56000 1430.000
24.60000 1387.000
24.64000 1341.000
24.68000 1441.000
24.72000 1429.000
24.76000 1497.000
24.80000 1392.000
24.84000 1475.000
24.88000 1451.000
24.92000 1556.000
24.96000 1585.000
25.00000 1695.000
25.04000 1807.000
25.08000 1822.000
25.12000 2009.000
25.16000 1947.000
25.20000 2072.000
25.24000 2042.000
25.28000 2046.000
25.32000 2055.000
25.36000 1999.000
25.40000 1949.000
25.44000 1799.000
25.48000 1806.000
25.52000 1701.000
25.56000 1661.000
25.60000 1649.000
25.64000 1626.000
25.68000 1556.000
25.72000 1644.000
25.76000 1684.000
25.80000 1650.000
25.84000 1743.000
25.88000 1713.000
25.92000 1598.000
25.96000 1735.000
26.00000 1583.000
26.04000 1453.000
26.08000 1430.000
26.12000 1444.000
26.16000 1473.000
26.20000 1306.000
26.24000 1297.000
26.28000 1306.000
26.32000 1273.000
26.36000 1280.000
26.40000 1269.000
26.44000 1217.000
26.48000 1226.000
26.52000 1270.000
26.56000 1262.000
26.60000 1301.000
26.64000 1232.000
26.68000 1190.000
26.72000 1247.000
26.76000 1318.000
26.80000 1248.000
26.84000 1316.000
26.88000 1219.000
26.92000 1256.000
26.96000 1177.000
27.00000 1322.000
27.04000 1205.000
27.08000 1274.000
27.12000 1286.000
27.16000 1307.000
27.20000 1310.000
27.24000 1342.000
27.28000 1387.000
27.32000 1298.000
27.36000 1424.000
27.40000 1466.000
27.44000 1506.000
27.48000 1486.000
27.52000 1506.000
27.56000 1562.000
27.60000 1520.000
27.64000 1567.000
27.68000 1518.000
27.72000 1435.000
27.76000 1375.000
27.80000 1400.000
27.84000 1294.000
27.88000 1328.000
27.92000 1245.000
27.96000 1283.000
28.00000 1256.000
28.04000 1191.000
28.08000 1231.000
28.12000 1244.000
28.16000 1193.000
28.20000 1243.000
28.24000 1142.000
28.28000 1137.000
28.32000 1120.000
28.36000 1139.000
28.40000 1194.000
28.44000 1155.000
28.48000 1209.000
28.52000 1112.000
28.56000 1174.000
28.60000 1117.000
28.64000 1125.000
28.68000 1132.000
28.72000 1103.000
28.76000 1157.000
28.80000 1141.000
28.84000 1098.000
28.88000 1183.000
28.92000 1122.000
28.96000 1183.000
29.00000 1120.000
29.04000 1097.000
29.08000 1105.000
29.12000 1106.000
29.16000 1164.000
29.20000 1134.000
29.24000 1112.000
29.28000 1105.000
29.32000 1164.000
29.36000 1198.000
29.40000 1183.000
29.44000 1125.000
29.48000 1183.000
29.52000 1199.000
29.56000 1276.000
29.60000 1201.000
29.64000 1262.000
29.68000 1318.000
29.72000 1305.000
29.76000 1459.000
29.80000 1458.000
29.84000 1425.000
29.88000 1376.000
29.92000 1409.000
29.96000 1338.000
30.00000 1342.000
30.04000 1212.000
30.08000 1189.000
30.12000 1167.000
30.16000 1140.000
30.20000 1119.000
30.24000 1112.000
30.28000 1115.000
30.32000 1009.000
30.36000 1069.000
30.40000 1045.000
30.44000 1041.000
30.48000 1007.000
30.52000 1041.000
30.56000 1068.000
30.60000 1024.000
30.64000 1045.000
30.68000 1007.000
30.72000 1005.000
30.76000 968.000
30.80000 1025.000
30.84000 1018.000
30.88000 1046.000
30.92000 1062.000
30.96000 1019.000
31.00000 1023.000
31.04000 1012.000
31.08000 966.000
31.12000 972.000
31.16000 943.000
31.20000 1046.000
31.24000 997.000
31.28000 1009.000
31.32000 1003.000
31.36000 988.000
31.40000 963.000
31.44000 929.000
31.48000 982.000
31.52000 987.000
31.56000 964.000
31.60000 983.000
31.64000 928.000
31.68000 940.000
31.72000 1023.000
31.76000 952.000
31.80000 978.000
31.84000 915.000
31.88000 987.000
31.92000 959.000
31.96000 994.000
32.00000 983.000
32.04000 987.000
32.08000 1016.000
32.12000 1002.000
32.16000 1083.000
32.20000 1063.000
32.24000 1107.000
32.28000 1058.000
32.32000 1089.000
32.36000 1129.000
32.40000 1156.000
32.44000 1152.000
32.48000 1145.000
32.52000 1223.000
32.56000 1110.000
32.60000 1173.000
32.64000 1153.000
32.68000 1019.000
32.72000 1109.000
32.76000 1066.000
32.80000 1077.000
32.84000 985.000
32.88000 1039.000
32.92000 996.000
32.96000 975.000
33.00000 954.000
33.04000 919.000
33.08000 943.000
33.12000 952.000
33.16000 952.000
33.20000 893.000
33.24000 923.000
33.28000 858.000
33.32000 912.000
33.36000 839.000
33.40000 900.000
33.44000 839.000
33.48000 877.000
33.52000 885.000
33.56000 856.000
33.60000 862.000
33.64000 897.000
33.68000 867.000
33.72000 801.000
33.76000 786.000
33.80000 811.000
33.84000 799.000
33.88000 800.000
33.92000 825.000
33.96000 808.000
34.00000 793.000
34.04000 786.000
34.08000 765.000
34.12000 794.000
34.16000 784.000
34.20000 767.000
34.24000 780.000
34.28000 760.000
34.32000 719.000
34.36000 796.000
34.40000 764.000
34.44000 765.000
34.48000 734.000
34.52000 747.000
34.56000 732.000
34.60000 729.000
34.64000 746.000
34.68000 765.000
34.72000 697.000
34.76000 722.000
34.80000 739.000
34.84000 737.000
34.88000 727.000
34.92000 704.000
34.96000 747.000
35.00000 725.000
35.04000 681.000
35.08000 726.000
35.12000 704.000
35.16000 723.000
35.20000 728.000
35.24000 651.000
35.28000 747.000
35.32000 683.000
35.36000 694.000
35.40000 701.000
35.44000 713.000
35.48000 708.000
35.52000 702.000
35.56000 704.000
35.60000 661.000
35.64000 718.000
35.68000 667.000
35.72000 672.000
35.76000 641.000
35.80000 665.000
35.84000 661.000
35.88000 680.000
35.92000 657.000
35.96000 683.000
36.00000 662.000
36.04000 638.000
36.08000 685.000
36.12000 631.000
36.16000 638.000
36.20000 662.000
36.24000 620.000
36.28000 632.000
36.32000 674.000
36.36000 634.000
36.40000 603.000
36.44000 590.000
36.48000 657.000
36.52000 662.000
36.56000 674.000
36.60000 634.000
36.64000 614.000
36.68000 641.000
36.72000 607.000
36.76000 659.000
36.80000 585.000
36.84000 653.000
36.88000 612.000
36.92000 615.000
36.96000 675.000
37.00000 642.000
37.04000 663.000
37.08000 646.000
37.12000 614.000
37.16000 587.000
37.20000 618.000
37.24000 598.000
37.28000 588.000
37.32000 590.000
37.36000 579.000
37.40000 606.000
37.44000 555.000
37.48000 586.000
37.52000 579.000
37.56000 562.000
37.60000 565.000
37.64000 576.000
37.68000 605.000
37.72000 531.000
37.76000 579.000
37.80000 538.000
37.84000 577.000
37.88000 614.000
37.92000 562.000
37.96000 580.000
38.00000 530.000
38.04000 559.000
38.08000 536.000
38.12000 590.000
38.16000 537.000
38.20000 558.000
38.24000 583.000
38.28000 569.000
38.32000 575.000
38.36000 573.000
38.40000 579.000
38.44000 558.000
38.48000 583.000
38.52000 607.000
38.56000 593.000
38.60000 586.000
38.64000 540.000
38.68000 638.000
38.72000 598.000
38.76000 570.000
38.80000 586.000
38.84000 616.000
38.88000 604.000
38.92000 630.000
38.96000 599.000
39.00000 576.000
39.04000 590.000
39.08000 634.000
39.12000 586.000
39.16000 553.000
39.20000 564.000
39.24000 619.000
39.28000 532.000
39.32000 553.000
39.36000 540.000
39.40000 565.000
39.44000 577.000
39.48000 535.000
39.52000 513.000
39.56000 518.000
39.60000 525.000
39.64000 576.000
39.68000 557.000
39.72000 543.000
39.76000 547.000
39.80000 579.000
39.84000 563.000
39.88000 521.000
39.92000 528.000
39.96000 529.000
40.00000 545.000
40.04000 523.000
40.08000 515.000
40.12000 538.000
40.16000 573.000
40.20000 499.000
40.24000 567.000
40.28000 552.000
40.32000 544.000
40.36000 573.000
40.40000 535.000
40.44000 520.000
40.48000 563.000
40.52000 524.000
40.56000 552.000
40.60000 552.000
40.64000 550.000
40.68000 518.000
40.72000 535.000
40.76000 497.000
40.80000 486.000
40.84000 512.000
40.88000 545.000
40.92000 565.000
40.96000 557.000
41.00000 519.000
41.04000 543.000
41.08000 543.000
41.12000 508.000
41.16000 522.000
41.20000 561.000
41.24000 491.000
41.28000 532.000
41.32000 534.000
41.36000 577.000
41.40000 517.000
41.44000 521.000
41.48000 522.000
41.52000 536.000
41.56000 525.000
41.60000 548.000
41.64000 523.000
41.68000 546.000
41.72000 607.000
41.76000 561.000
41.80000 588.000
41.84000 529.000
41.88000 530.000
41.92000 564.000
41.96000 577.000
42.00000 576.000
42.04000 597.000
42.08000 577.000
42.12000 641.000
42.16000 613.000
42.20000 626.000
42.24000 534.000
42.28000 637.000
42.32000 573.000
42.36000 595.000
42.40000 608.000
42.44000 624.000
42.48000 566.000
42.52000 590.000
42.56000 595.000
42.60000 626.000
42.64000 581.000
42.68000 626.000
42.72000 597.000
42.76000 645.000
42.80000 628.000
42.84000 591.000
42.88000 676.000
42.92000 666.000
42.96000 662.000
43.00000 709.000
43.04000 690.000
43.08000 677.000
43.12000 644.000
43.16000 630.000
43.20000 648.000
43.24000 619.000
43.28000 619.000
43.32000 597.000
43.36000 595.000
43.40000 555.000
43.44000 558.000
43.48000 599.000
43.52000 530.000
43.56000 535.000
43.60000 532.000
43.64000 588.000
43.68000 533.000
43.72000 545.000
43.76000 520.000
43.80000 548.000
43.84000 508.000
43.88000 497.000
43.92000 549.000
43.96000 515.000
44.00000 548.000
44.04000 563.000
44.08000 503.000
44.12000 486.000
44.16000 556.000
44.20000 524.000
44.24000 528.000
44.28000 518.000
44.32000 531.000
44.36000 512.000
44.40000 500.000
44.44000 534.000
44.48000 510.000
44.52000 511.000
44.56000 536.000
44.60000 548.000
44.64000 505.000
44.68000 524.000
44.72000 519.000
44.76000 516.000
44.80000 581.000
44.84000 558.000
44.88000 523.000
44.92000 521.000
44.96000 540.000
45.00000 495.000
45.04000 554.000
45.08000 519.000
45.12000 543.000
45.16000 543.000
45.20000 548.000
45.24000 529.000
45.28000 518.000
45.32000 538.000
45.36000 543.000
45.40000 528.000
45.44000 505.000
45.48000 487.000
45.52000 508.000
45.56000 522.000
45.60000 511.000
45.64000 515.000
45.68000 557.000
45.72000 541.000
45.76000 578.000
45.80000 547.000
45.84000 525.000
45.88000 576.000
45.92000 576.000
45.96000 565.000
46.00000 596.000
46.04000 537.000
46.08000 572.000
46.12000 556.000
46.16000 600.000
46.20000 621.000
46.24000 559.000
46.28000 543.000
46.32000 505.000
46.36000 523.000
46.40000 513.000
46.44000 522.000
46.48000 522.000
46.52000 509.000
46.56000 503.000
46.60000 515.000
46.64000 505.000
46.68000 552.000
46.72000 499.000
46.76000 440.000
46.80000 469.000
46.84000 525.000
46.88000 464.000
46.92000 500.000
46.96000 507.000
47.00000 498.000
47.04000 476.000
47.08000 480.000
47.12000 472.000
47.16000 486.000
47.20000 486.000
47.24000 473.000
47.28000 479.000
47.32000 490.000
47.36000 484.000
47.40000 443.000
47.44000 480.000
47.48000 484.000
47.52000 447.000
47.56000 465.000
47.60000 487.000
47.64000 451.000
47.68000 468.000
47.72000 473.000
47.76000 518.000
47.80000 526.000
47.84000 489.000
47.88000 461.000
47.92000 480.000
47.96000 450.000
48.00000 447.000
48.04000 442.000
48.08000 519.000
48.12000 466.000
48.16000 452.000
48.20000 505.000
48.24000 485.000
48.28000 459.000
48.32000 492.000
48.36000 467.000
48.40000 450.000
48.44000 462.000
48.48000 499.000
48.52000 486.000
48.56000 474.000
48.60000 449.000
48.64000 496.000
48.68000 465.000
48.72000 465.000
48.76000 467.000
48.80000 484.000
48.84000 454.000
48.88000 485.000
48.92000 467.000
48.96000 440.000
49.00000 451.000
49.04000 456.000
49.08000 474.000
49.12000 497.000
49.16000 488.000
49.20000 475.000
49.24000 489.000
49.28000 494.000
49.32000 443.000
49.36000 486.000
49.40000 464.000
49.44000 477.000
49.48000 512.000
49.52000 475.000
49.56000 444.000
49.60000 419.000
49.64000 465.000
49.68000 493.000
49.72000 444.000
49.76000 475.000
49.80000 474.000
49.84000 488.000
49.88000 450.000
49.92000 464.000
49.96000 486.000
50.00000 439.000
50.04000 465.000
50.08000 500.000
50.12000 498.000
50.16000 520.000
50.20000 478.000
50.24000 470.000
50.28000 505.000
50.32000 478.000
50.36000 525.000
50.40000 479.000
50.44000 484.000
50.48000 501.000
50.52000 512.000
50.56000 480.000
50.60000 484.000
50.64000 476.000
50.68000 499.000
50.72000 490.000
50.76000 493.000
50.80000 482.000
50.84000 461.000
50.88000 510.000
50.92000 482.000
50.96000 487.000
51.00000 479.000
51.04000 503.000
51.08000 472.000
51.12000 518.000
51.16000 484.000
51.20000 462.000
51.24000 471.000
51.28000 493.000
51.32000 478.000
51.36000 459.000
51.40000 467.000
51.44000 456.000
51.48000 479.000
51.52000 465.000
51.56000 491.000
51.60000 497.000
51.64000 499.000
51.68000 496.000
51.72000 463.000
51.76000 482.000
51.80000 505.000
51.84000 536.000
51.88000 537.000
51.92000 493.000
51.96000 528.000
52.00000 515.000
52.04000 477.000
52.08000 491.000
52.12000 482.000
52.16000 456.000
52.20000 465.000
52.24000 459.000
52.28000 486.000
52.32000 468.000
52.36000 449.000
52.40000 463.000
52.44000 461.000
52.48000 462.000
52.52000 433.000
52.56000 427.000
52.60000 426.000
52.64000 465.000
52.68000 413.000
52.72000 461.000
52.76000 434.000
52.80000 435.000
52.84000 454.000
52.88000 437.000
52.92000 445.000
52.96000 452.000
53.00000 420.000
53.04000 431.000
53.08000 430.000
53.12000 423.000
53.16000 464.000
53.20000 475.000
53.24000 489.000
53.28000 426.000
53.32000 479.000
53.36000 427.000
53.40000 458.000
53.44000 470.000
53.48000 496.000
53.52000 461.000
53.56000 432.000
53.60000 430.000
53.64000 432.000
53.68000 455.000
53.72000 459.000
53.76000 423.000
53.80000 441.000
53.84000 439.000
53.88000 448.000
53.92000 433.000
53.96000 425.000
54.00000 440.000
54.04000 445.000
54.08000 436.000
54.12000 468.000
54.16000 480.000
54.20000 447.000
54.24000 448.000
54.28000 469.000
54.32000 463.000
54.36000 402.000
54.40000 467.000
54.44000 405.000
54.48000 434.000
54.52000 428.000
54.56000 439.000
54.60000 409.000
54.64000 410.000
54.68000 436.000
54.72000 448.000
54.76000 454.000
54.80000 442.000
54.84000 396.000
54.88000 471.000
54.92000 477.000
54.96000 491.000
55.00000 443.000
55.04000 440.000
55.08000 443.000
55.12000 463.000
55.16000 435.000
55.20000 484.000
55.24000 459.000
55.28000 415.000
55.32000 435.000
55.36000 450.000
55.40000 420.000
55.44000 413.000
55.48000 437.000
55.52000 454.000
55.56000 468.000
55.60000 449.000
55.64000 457.000
55.68000 449.000
55.72000 457.000
55.76000 460.000
55.80000 451.000
55.84000 435.000
55.88000 432.000
55.92000 458.000
55.96000 428.000
56.00000 439.000
56.04000 421.000
56.08000 429.000
56.12000 426.000
56.16000 442.000
56.20000 445.000
56.24000 458.000
56.28000 463.000
56.32000 443.000
56.36000 411.000
56.40000 418.000
56.44000 460.000
56.48000 425.000
56.52000 439.000
56.56000 422.000
56.60000 440.000
56.64000 434.000
56.68000 421.000
56.72000 441.000
56.76000 430.000
56.80000 426.000
56.84000 437.000
56.88000 415.000
56.92000 443.000
56.96000 440.000
57.00000 467.000
57.04000 455.000
57.08000 456.000
57.12000 426.000
57.16000 471.000
57.20000 406.000
57.24000 431.000
57.28000 412.000
57.32000 440.000
57.36000 435.000
57.40000 428.000
57.44000 435.000
57.48000 471.000
57.52000 438.000
57.56000 461.000
57.60000 436.000
57.64000 455.000
57.68000 454.000
57.72000 440.000
57.76000 428.000
57.80000 455.000
57.84000 420.000
57.88000 415.000
57.92000 434.000
57.96000 419.000
58.00000 439.000
58.04000 425.000
58.08000 433.000
58.12000 451.000
58.16000 424.000
58.20000 424.000
58.24000 453.000
58.28000 449.000
58.32000 454.000
58.36000 464.000
58.40000 459.000
58.44000 414.000
58.48000 456.000
58.52000 442.000
58.56000 438.000
58.60000 418.000
58.64000 470.000
58.68000 435.000
58.72000 442.000
58.76000 496.000
58.80000 432.000
58.84000 461.000
58.88000 479.000
58.92000 470.000
58.96000 441.000
59.00000 424.000
59.04000 450.000
59.08000 437.000
59.12000 435.000
59.16000 423.000
59.20000 473.000
59.24000 444.000
59.28000 421.000
59.32000 417.000
59.36000 471.000
59.40000 390.000
59.44000 447.000
59.48000 441.000
59.52000 468.000
59.56000 453.000
59.60000 434.000
59.64000 432.000
59.68000 419.000
59.72000 471.000
59.76000 466.000
59.80000 454.000
59.84000 445.000
59.88000 432.000
59.92000 420.000