File: XRD/48.xy
5.00000 1475.000
5.04000 1522.000
5.08000 1486.000
5.12000 1417.000
5.16000 1470.000
5.20000 1403.000
5.24000 1375.000
5.28000 1454.000
5.32000 1405.000
5.36000 1318.000
5.40000 1388.000
5.44000 1311.000
5.48000 1298.000
5.52000 1343.000
5.56000 1320.000
5.60000 1350.000
5.64000 1294.000
5.68000 1252.000
5.72000 1197.000
5.76000 1190.000
5.80000 1218.000
5.84000 1248.000
5.88000 1184.000
5.92000 1226.000
5.96000 1198.000
6.00000 1252.000
6.04000 1170.000
6.08000 1154.000
6.12000 1207.000
6.16000 1168.000
6.20000 1206.000
6.24000 1156.000
6.28000 1115.000
6.32000 1116.000
6.36000 1101.000
6.40000 1174.000
6.44000 1107.000
6.48000 1097.000
6.52000 1111.000
6.56000 1069.000
6.60000 1100.000
6.64000 1101.000
6.68000 1060.000
6.72000 1073.000
6.76000 1053.000
6.80000 1103.000
6.84000 1069.000
6.88000 1016.000
6.92000 1037.000
6.96000 1141.000
7.00000 1039.000
7.04000 1013.000
7.08000 1008.000
7.12000 1057.000
7.16000 1012.000
7.20000 1042.000
7.24000 1021.000
7.28000 1082.000
7.32000 962.000
7.36000 954.000
7.40000 978.000
7.44000 983.000
7.48000 1055.000
7.52000 1010.000
7.56000 984.000
7.60000 1001.000
7.64000 984.000
7.68000 970.000
7.72000 898.000
7.76000 1002.000
7.80000 934.000
7.84000 939.000
7.88000 941.000
7.92000 1002.000
7.96000 1014.000
8.00000 950.000
8.04000 965.000
8.08000 1005.000
8.12000 980.000
8.16000 1032.000
8.20000 956.000
8.24000 1056.000
8.28000 1038.000
8.32000 994.000
8.36000 1029.000
8.40000 961.000
8.44000 941.000
8.48000 971.000
8.52000 942.000
8.56000 957.000
8.60000 891.000
8.64000 931.000
8.68000 898.000
8.72000 867.000
8.76000 843.000
8.80000 805.000
8.84000 833.000
8.88000 807.000
8.92000 864.000
8.96000 824.000
9.00000 846.000
9.04000 806.000
9.08000 797.000
9.12000 828.000
9.16000 828.000
9.20000 794.000
9.24000 785.000
9.28000 736.000
9.32000 818.000
9.36000 772.000
9.40000 762.000
9.44000 772.000
9.48000 808.000
9.52000 719.000
9.56000 786.000
9.60000 755.000
9.64000 750.000
9.68000 771.000
9.72000 689.000
9.76000 779.000
9.80000 783.000
9.84000 808.000
9.88000 767.000
9.92000 782.000
9.96000 723.000
10.00000 760.000
10.04000 732.000
10.08000 735.000
10.12000 703.000
10.16000 725.000
10.20000 746.000
10.24000 729.000
10.28000 707.000
10.32000 730.000
10.36000 654.000
10.40000 780.000
10.44000 738.000
10.48000 698.000
10.52000 700.000
10.56000 695.000
10.60000 730.000
10.64000 738.000
10.68000 753.000
10.72000 693.000
10.76000 690.000
10.80000 734.000
10.84000 680.000
10.88000 778.000
10.92000 730.000
10.96000 702.000
11.00000 755.000
11.04000 735.000
11.08000 731.000
11.12000 705.000
11.16000 696.000
11.20000 735.000
11.24000 732.000
11.28000 728.000
11.32000 680.000
11.36000 702.000
11.40000 721.000
11.44000 709.000
11.48000 751.000
11.52000 747.000
11.56000 705.000
11.60000 764.000
11.64000 782.000
11.68000 650.000
11.72000 716.000
11.76000 751.000
11.80000 732.000
11.84000 752.000
11.88000 701.000
11.92000 793.000
11.96000 835.000
12.00000 810.000
12.04000 805.000
12.08000 853.000
12.12000 797.000
12.16000 854.000
12.20000 827.000
12.24000 816.000
12.28000 828.000
12.32000 807.000
12.36000 839.000
12.40000 805.000
12.44000 786.000
12.48000 843.000
12.52000 821.000
12.56000 899.000
12.60000 893.000
12.64000 899.000
12.68000 948.000
12.72000 978.000
12.76000 959.000
12.80000 1023.000
12.84000 1031.000
12.88000 919.000
12.92000 992.000
12.96000 964.000
13.00000 903.000
13.04000 843.000
13.08000 799.000
13.12000 723.000
13.16000 714.000
13.20000 790.000
13.24000 683.000
13.28000 620.000
13.32000 664.000
13.36000 624.000
13.40000 671.000
13.44000 680.000
13.48000 671.000
13.52000 644.000
13.56000 689.000
13.60000 654.000
13.64000 634.000
13.68000 682.000
13.72000 676.000
13.76000 637.000
13.80000 644.000
13.84000 695.000
13.88000 614.000
13.92000 652.000
13.96000 651.000
14.00000 693.000
14.04000 674.000
14.08000 647.000
14.12000 612.000
14.16000 633.000
14.20000 664.000
14.24000 641.000
14.28000 663.000
14.32000 698.000
14.36000 684.000
14.40000 644.000
14.44000 638.000
14.48000 686.000
14.52000 654.000
14.56000 661.000
14.60000 673.000
14.64000 655.000
14.68000 650.000
14.72000 653.000
14.76000 674.000
14.80000 710.000
14.84000 691.000
14.88000 663.000
14.92000 661.000
14.96000 624.000
15.00000 634.000
15.04000 697.000
15.08000 679.000
15.12000 656.000
15.16000 672.000
15.20000 669.000
15.24000 695.000
15.28000 695.000
15.32000 661.000
15.36000 670.000
15.40000 667.000
15.44000 689.000
15.48000 689.000
15.52000 678.000
15.56000 657.000
15.60000 651.000
15.64000 682.000
15.68000 713.000
15.72000 680.000
15.76000 624.000
15.80000 696.000
15.84000 671.000
15.88000 692.000
15.92000 667.000
15.96000 706.000
16.00000 738.000
16.04000 637.000
16.08000 668.000
16.12000 721.000
16.16000 739.000
16.20000 706.000
16.24000 741.000
16.28000 798.000
16.32000 739.000
16.36000 742.000
16.40000 772.000
16.44000 749.000
16.48000 762.000
16.52000 799.000
16.56000 839.000
16.60000 752.000
16.64000 749.000
16.68000 746.000
16.72000 826.000
16.76000 769.000
16.80000 830.000
16.84000 784.000
16.88000 795.000
16.92000 804.000
16.96000 855.000
17.00000 779.000
17.04000 789.000
17.08000 791.000
17.12000 755.000
17.16000 770.000
17.20000 780.000
17.24000 770.000
17.28000 806.000
17.32000 812.000
17.36000 793.000
17.40000 778.000
17.44000 773.000
17.48000 771.000
17.52000 825.000
17.56000 796.000
17.60000 777.000
17.64000 826.000
17.68000 809.000
17.72000 752.000
17.76000 837.000
17.80000 873.000
17.84000 791.000
17.88000 806.000
17.92000 830.000
17.96000 851.000
18.00000 792.000
18.04000 833.000
18.08000 854.000
18.12000 804.000
18.16000 825.000
18.20000 841.000
18.24000 801.000
18.28000 826.000
18.32000 845.000
18.36000 831.000
18.40000 865.000
18.44000 761.000
18.48000 822.000
18.52000 872.000
18.56000 854.000
18.60000 856.000
18.64000 859.000
18.68000 874.000
18.72000 935.000
18.76000 915.000
18.80000 976.000
18.84000 889.000
18.88000 906.000
18.92000 926.000
18.96000 932.000
19.00000 895.000
19.04000 952.000
19.08000 959.000
19.12000 916.000
19.16000 877.000
19.20000 900.000
19.24000 968.000
19.28000 953.000
19.32000 946.000
19.36000 950.000
19.40000 939.000
19.44000 940.000
19.48000 905.000
19.52000 940.000
19.56000 968.000
19.60000 931.000
19.64000 996.000
19.68000 976.000
19.72000 950.000
19.76000 959.000
19.80000 974.000
19.84000 982.000
19.88000 983.000
19.92000 933.000
19.96000 1006.000
20.00000 970.000
20.04000 939.000
20.08000 1026.000
20.12000 974.000
20.16000 1033.000
20.20000 1019.000
20.24000 1003.000
20.28000 1071.000
20.32000 1063.000
20.36000 1031.000
20.40000 1060.000
20.44000 1058.000
20.48000 1060.000
20.52000 1038.000
20.56000 1088.000
20.60000 1059.000
20.64000 1058.000
20.68000 1122.000
20.72000 1024.000
20.76000 1093.000
20.80000 1140.000
20.84000 1105.000
20.88000 1140.000
20.92000 1152.000
20.96000 1163.000
21.00000 1195.000
21.04000 1182.000
21.08000 1168.000
21.12000 1255.000
21.16000 1250.000
21.20000 1255.000
21.24000 1182.000
21.28000 1205.000
21.32000 1237.000
21.36000 1163.000
21.40000 1172.000
21.44000 1130.000
21.48000 1141.000
21.52000 1179.000
21.56000 1108.000
21.60000 1106.000
21.64000 1144.000
21.68000 1178.000
21.72000 1238.000
21.76000 1167.000
21.80000 1159.000
21.84000 1128.000
21.88000 1124.000
21.92000 1213.000
21.96000 1169.000
22.00000 1197.000
22.04000 1214.000
22.08000 1168.000
22.12000 1150.000
22.16000 1178.000
22.20000 1151.000
22.24000 1106.000
22.28000 1204.000
22.32000 1196.000
22.36000 1186.000
22.40000 1158.000
22.44000 1218.000
22.48000 1128.000
22.52000 1203.000
22.56000 1229.000
22.60000 1200.000
22.64000 1150.000
22.68000 1223.000
22.72000 1209.000
22.76000 1268.000
22.80000 1217.000
22.84000 1259.000
22.88000 1220.000
22.92000 1187.000
22.96000 1144.000
23.00000 1238.000
23.04000 1225.000
23.08000 1268.000
23.12000 1173.000
23.16000 1176.000
23.20000 1300.000
23.24000 1217.000
23.28000 1238.000
23.32000 1264.000
23.36000 1215.000
23.40000 1244.000
23.44000 1268.000
23.48000 1190.000
23.52000 1202.000
23.56000 1218.000
23.60000 1267.000
23.64000 1333.000
23.68000 1258.000
23.72000 1178.000
23.76000 1268.000
23.80000 1297.000
23.84000 1242.000
23.88000 1280.000
23.92000 1263.000
23.96000 1218.000
24.00000 1259.000
24.04000 1293.000
24.08000 1279.000
24.12000 1305.000
24.16000 1346.000
24.20000 1370.000
24.24000 1387.000
24.28000 1419.000
24.32000 1459.000
24.36000 1460.000
24.40000 1447.000
24.44000 1429.000
24.48000 1409.000
24.52000 1390.000
24.56000 1436.000
24.60000 1382.000
24.64000 1415.000
24.68000 1402.000
24.72000 1394.000
24.76000 1331.000
24.80000 1411.000
24.84000 1463.000
24.88000 1490.000
24.92000 1510.000
24.96000 1526.000
25.00000 1559.000
25.04000 1686.000
25.08000 1711.000
25.12000 1804.000
25.16000 1906.000
25.20000 1891.000
25.24000 1938.000
25.28000 2043.000
25.32000 2052.000
25.36000 2035.000
25.40000 1925.000
25.44000 1856.000
25.48000 1839.000
25.52000 1772.000
25.56000 1715.000
25.60000 1643.000
25.64000 1748.000
25.68000 1612.000
25.72000 1703.000
25.76000 1650.000
25.80000 1620.000
25.84000 1638.000
25.88000 1701.000
25.92000 1781.000
25.96000 1716.000
26.00000 1667.000
26.04000 1619.000
26.08000 1491.000
26.12000 1531.000
26.16000 1411.000
26.20000 1373.000
26.24000 1352.000
26.28000 1242.000
26.32000 1288.000
26.36000 1232.000
26.40000 1227.000
26.44000 1331.000
26.48000 1256.000
26.52000 1267.000
26.56000 1226.000
26.60000 1209.000
26.64000 1219.000
26.68000 1210.000
26.72000 1247.000
26.76000 1247.000
26.80000 1214.000
26.84000 1264.000
26.88000 1215.000
26.92000 1214.000
26.96000 1255.000
27.00000 1214.000
27.04000 1292.000
27.08000 1264.000
27.12000 1305.000
27.16000 1369.000
27.20000 1240.000
27.24000 1349.000
27.28000 1325.000
27.32000 1363.000
27.36000 1398.000
27.40000 1379.000
27.44000 1314.000
27.48000 1481.000
27.52000 1462.000
27.56000 1577.000
27.60000 1510.000
27.64000 1544.000
27.68000 1561.000
27.72000 1438.000
27.76000 1486.000
27.80000 1437.000
27.84000 1315.000
27.88000 1338.000
27.92000 1242.000
27.96000 1229.000
28.00000 1219.000
28.04000 1176.000
28.08000 1224.000
28.12000 1144.000
28.16000 1182.000
28.20000 1180.000
28.24000 1202.000
28.28000 1195.000
28.32000 1158.000
28.36000 1182.000
28.40000 1158.000
28.44000 1104.000
28.48000 1131.000
28.52000 1159.000
28.56000 1168.000
28.60000 1128.000
28.64000 1140.000
28.68000 1090.000
28.72000 1178.000
28.76000 1149.000
28.80000 1104.000
28.84000 1097.000
28.88000 1089.000
28.92000 1071.000
28.96000 1142.000
29.00000 1095.000
29.04000 1085.000
29.08000 1105.000
29.12000 1128.000
29.16000 1063.000
29.20000 1089.000
29.24000 1103.000
29.28000 1086.000
29.32000 1094.000
29.36000 1132.000
29.40000 1120.000
29.44000 1167.000
29.48000 1156.000
29.52000 1153.000
29.56000 1215.000
29.60000 1216.000
29.64000 1234.000
29.68000 1377.000
29.72000 1383.000
29.76000 1404.000
29.80000 1409.000
29.84000 1437.000
29.88000 1377.000
29.92000 1366.000
29.96000 1379.000
30.00000 1298.000
30.04000 1250.000
30.08000 1239.000
30.12000 1235.000
30.16000 1137.000
30.20000 1154.000
30.24000 1129.000
30.28000 1101.000
30.32000 1050.000
30.36000 1017.000
30.40000 1099.000
30.44000 1080.000
30.48000 1039.000
30.52000 1066.000
30.56000 1049.000
30.60000 997.000
30.64000 1062.000
30.68000 1003.000
30.72000 1001.000
30.76000 1007.000
30.80000 977.000
30.84000 967.000
30.88000 998.000
30.92000 979.000
30.96000 1031.000
31.00000 1012.000
31.04000 998.000
31.08000 1009.000
31.12000 931.000
31.16000 1016.000
31.20000 990.000
31.24000 975.000
31.28000 903.000
31.32000 1015.000
31.36000 1022.000
31.40000 1018.000
31.44000 962.000
31.48000 961.000
31.52000 949.000
31.56000 962.000
31.60000 937.000
31.64000 980.000
31.68000 949.000
31.72000 948.000
31.76000 952.000
31.80000 960.000
31.84000 937.000
31.88000 951.000
31.92000 946.000
31.96000 962.000
32.00000 1019.000
32.04000 929.000
32.08000 1027.000
32.12000 1009.000
32.16000 965.000
32.20000 1040.000
32.24000 1042.000
32.28000 1037.000
32.32000 1107.000
32.36000 1075.000
32.40000 1134.000
32.44000 1145.000
32.48000 1195.000
32.52000 1214.000
32.56000 1231.000
32.60000 1151.000
32.64000 1132.000
32.68000 1147.000
32.72000 1107.000
32.76000 1077.000
32.80000 1056.000
32.84000 1004.000
32.88000 1038.000
32.92000 982.000
32.96000 976.000
33.00000 906.000
33.04000 904.000
33.08000 905.000
33.12000 898.000
33.16000 900.000
33.20000 950.000
33.24000 936.000
33.28000 932.000
33.32000 884.000
33.36000 920.000
33.40000 864.000
33.44000 938.000
33.48000 872.000
33.52000 849.000
33.56000 860.000
33.60000 839.000
33.64000 852.000
33.68000 787.000
33.72000 881.000
33.76000 801.000
33.80000 800.000
33.84000 811.000
33.88000 795.000
33.92000 810.000
33.96000 823.000
34.00000 803.000
34.04000 780.000
34.08000 810.000
34.12000 731.000
34.16000 776.000
34.20000 727.000
34.24000 797.000
34.28000 738.000
34.32000 717.000
34.36000 801.000
34.40000 733.000
34.44000 741.000
34.48000 734.000
34.52000 759.000
34.56000 820.000
34.60000 767.000
34.64000 755.000
34.68000 747.000
34.72000 769.000
34.76000 792.000
34.80000 738.000
34.84000 711.000
34.88000 698.000
34.92000 713.000
34.96000 722.000
35.00000 686.000
35.04000 744.000
35.08000 712.000
35.12000 746.000
35.16000 715.000
35.20000 645.000
35.24000 708.000
35.28000 749.000
35.32000 709.000
35.36000 643.000
35.40000 661.000
35.44000 697.000
35.48000 704.000
35.52000 698.000
35.56000 713.000
35.60000 675.000
35.64000 677.000
35.68000 682.000
35.72000 629.000
35.76000 627.000
35.80000 692.000
35.84000 702.000
35.88000 663.000
35.92000 691.000
35.96000 689.000
36.00000 629.000
36.04000 677.000
36.08000 651.000
36.12000 638.000
36.16000 614.000
36.20000 632.000
36.24000 652.000
36.28000 651.000
36.32000 634.000
36.36000 653.000
36.40000 599.000
36.44000 631.000
36.48000 606.000
36.52000 615.000
36.56000 606.000
36.60000 637.000
36.64000 591.000
36.68000 638.000
36.72000 612.000
36.76000 620.000
36.80000 651.000
36.84000 614.000
36.88000 609.000
36.92000 650.000
36.96000 697.000
37.00000 621.000
37.04000 603.000
37.08000 606.000
37.12000 632.000
37.16000 613.000
37.20000 599.000
37.24000 597.000
37.28000 599.000
37.32000 613.000
37.36000 594.000
37.40000 593.000
37.44000 618.000
37.48000 594.000
37.52000 649.000
37.56000 557.000
37.60000 601.000
37.64000 596.000
37.68000 565.000
37.72000 598.000
37.76000 605.000
37.80000 555.000
37.84000 546.000
37.88000 570.000
37.92000 592.000
37.96000 552.000
38.00000 579.000
38.04000 592.000
38.08000 528.000
38.12000 532.000
38.16000 561.000
38.20000 609.000
38.24000 540.000
38.28000 579.000
38.32000 524.000
38.36000 555.000
38.40000 556.000
38.44000 532.000
38.48000 547.000
38.52000 523.000
38.56000 579.000
38.60000 586.000
38.64000 601.000
38.68000 598.000
38.72000 623.000
38.76000 604.000
38.80000 591.000
38.84000 587.000
38.88000 628.000
38.92000 633.000
38.96000 600.000
39.00000 602.000
39.04000 573.000
39.08000 618.000
39.12000 573.000
39.16000 600.000
39.20000 517.000
39.24000 565.000
39.28000 568.000
39.32000 551.000
39.36000 533.000
39.40000 556.000
39.44000 553.000
39.48000 554.000
39.52000 607.000
39.56000 515.000
39.60000 551.000
39.64000 549.000
39.68000 541.000
39.72000 500.000
39.76000 544.000
39.80000 496.000
39.84000 556.000
39.88000 519.000
39.92000 549.000
39.96000 558.000
40.00000 546.000
40.04000 551.000
40.08000 584.000
40.12000 554.000
40.16000 560.000
40.20000 529.000
40.24000 507.000
40.28000 526.000
40.32000 530.000
40.36000 514.000
40.40000 507.000
40.44000 538.000
40.48000 535.000
40.52000 565.000
40.56000 522.000
40.60000 597.000
40.64000 527.000
40.68000 565.000
40.72000 570.000
40.76000 492.000
40.80000 569.000
40.84000 565.000
40.88000 542.000
40.92000 528.000
40.96000 533.000
41.00000 561.000
41.04000 519.000
41.08000 573.000
41.12000 563.000
41.16000 545.000
41.20000 542.000
41.24000 540.000
41.28000 563.000
41.32000 522.000
41.36000 539.000
41.40000 566.000
41.44000 534.000
41.48000 517.000
41.52000 542.000
41.56000 517.000
41.60000 510.000
41.64000 558.000
41.68000 525.000
41.72000 530.000
41.76000 536.000
41.80000 541.000
41.84000 579.000
41.88000 511.000
41.92000 583.000
41.96000 576.000
42.00000 542.000
42.04000 604.000
42.08000 555.000
42.12000 570.000
42.16000 584.000
42.20000 635.000
42.24000 589.000
42.28000 591.000
42.32000 634.000
42.36000 621.000
42.40000 602.000
42.44000 582.000
42.48000 638.000
42.52000 592.000
42.56000 601.000
42.60000 643.000
42.64000 577.000
42.68000 629.000
42.72000 600.000
42.76000 620.000
42.80000 627.000
42.84000 631.000
42.88000 604.000
42.92000 608.000
42.96000 669.000
43.00000 713.000
43.04000 718.000
43.08000 674.000
43.12000 693.000
43.16000 646.000
43.20000 711.000
43.24000 660.000
43.28000 667.000
43.32000 609.000
43.36000 625.000
43.40000 599.000
43.44000 540.000
43.48000 561.000
43.52000 564.000
43.56000 561.000
43.60000 577.000
43.64000 537.000
43.68000 551.000
43.72000 503.000
43.76000 516.000
43.80000 500.000
43.84000 530.000
43.88000 496.000
43.92000 507.000
43.96000 531.000
44.00000 502.000
44.04000 505.000
44.08000 522.000
44.12000 522.000
44.16000 532.000
44.20000 570.000
44.24000 510.000
44.28000 472.000
44.32000 584.000
44.36000 531.000
44.40000 491.000
44.44000 515.000
44.48000 519.000
44.52000 492.000
44.56000 513.000
44.60000 485.000
44.64000 494.000
44.68000 531.000
44.72000 543.000
44.76000 532.000
44.80000 499.000
44.84000 516.000
44.88000 527.000
44.92000 541.000
44.96000 478.000
45.00000 502.000
45.04000 534.000
45.08000 467.000
45.12000 542.000
45.16000 540.000
45.20000 493.000
45.24000 493.000
45.28000 561.000
45.32000 515.000
45.36000 518.000
45.40000 535.000
45.44000 481.000
45.48000 542.000
45.52000 567.000
45.56000 501.000
45.60000 511.000
45.64000 553.000
45.68000 546.000
45.72000 491.000
45.76000 554.000
45.80000 547.000
45.84000 519.000
45.88000 561.000
45.92000 579.000
45.96000 540.000
46.00000 566.000
46.04000 542.000
46.08000 612.000
46.12000 589.000
46.16000 591.000
46.20000 571.000
46.24000 549.000
46.28000 544.000
46.32000 532.000
46.36000 561.000
46.40000 487.000
46.44000 533.000
46.48000 494.000
46.52000 534.000
46.56000 517.000
46.60000 511.000
46.64000 518.000
46.68000 503.000
46.72000 491.000
46.76000 499.000
46.80000 510.000
46.84000 482.000
46.88000 493.000
46.92000 514.000
46.96000 509.000
47.00000 450.000
47.04000 456.000
47.08000 487.000
47.12000 498.000
47.16000 469.000
47.20000 457.000
47.24000 510.000
47.28000 473.000
47.32000 478.000
47.36000 488.000
47.40000 467.000
47.44000 460.000
47.48000 482.000
47.52000 463.000
47.56000 458.000
47.60000 485.000
47.64000 469.000
47.68000 462.000
47.72000 517.000
47.76000 481.000
47.80000 462.000
47.84000 503.000
47.88000 478.000
47.92000 477.000
47.96000 485.000
48.00000 474.000
48.04000 447.000
48.08000 460.000
48.12000 479.000
48.16000 493.000
48.20000 524.000
48.24000 483.000
48.28000 491.000
48.32000 440.000
48.36000 480.000
48.40000 503.000
48.44000 453.000
48.48000 469.000
48.52000 462.000
48.56000 482.000
48.60000 458.000
48.64000 476.000
48.68000 443.000
48.72000 444.000
48.76000 476.000
48.80000 465.000
48.84000 449.000
48.88000 463.000
48.92000 440.000
48.96000 464.000
49.00000 465.000
49.04000 426.000
49.08000 463.000
49.12000 460.000
49.16000 452.000
49.20000 489.000
49.24000 493.000
49.28000 481.000
49.32000 474.000
49.36000 465.000
49.40000 461.000
49.44000 449.000
49.48000 481.000
49.52000 469.000
49.56000 445.000
49.60000 485.000
49.64000 465.000
49.68000 439.000
49.72000 480.000
49.76000 491.000
49.80000 468.000
49.84000 499.000
49.88000 494.000
49.92000 503.000
49.96000 457.000
50.00000 470.000
50.04000 473.000
50.08000 460.000
50.12000 468.000
50.16000 477.000
50.20000 504.000
50.24000 464.000
50.28000 491.000
50.32000 487.000
50.36000 516.000
50.40000 462.000
50.44000 472.000
50.48000 475.000
50.52000 484.000
50.56000 506.000
50.60000 499.000
50.64000 488.000
50.68000 501.000
50.72000 517.000
50.76000 494.000
50.80000 521.000
50.84000 511.000
50.88000 520.000
50.92000 490.000
50.96000 520.000
51.00000 495.000
51.04000 478.000
51.08000 504.000
51.12000 551.000
51.16000 478.000
51.20000 480.000
51.24000 513.000
51.28000 465.000
51.32000 440.000
51.36000 483.000
51.40000 502.000
51.44000 490.000
51.48000 432.000
51.52000 494.000
51.56000 458.000
51.60000 484.000
51.64000 491.000
51.68000 468.000
51.72000 524.000
51.76000 507.000
51.80000 489.000
51.84000 530.000
51.88000 513.000
51.92000 535.000
51.96000 556.000
52.00000 468.000
52.04000 516.000
52.08000 524.000
52.12000 505.000
52.16000 469.000
52.20000 450.000
52.24000 500.000
52.28000 493.000
52.32000 517.000
52.36000 442.000
52.40000 474.000
52.44000 447.000
52.48000 440.000
52.52000 463.000
52.56000 443.000
52.60000 451.000
52.64000 445.000
52.68000 448.000
52.72000 481.000
52.76000 467.000
52.80000 426.000
52.84000 476.000
52.88000 418.000
52.92000 458.000
52.96000 432.000
53.00000 441.000
53.04000 437.000
53.08000 405.000
53.12000 466.000
53.16000 441.000
53.20000 469.000
53.24000 452.000
53.28000 475.000
53.32000 441.000
53.36000 450.000
53.40000 481.000
53.44000 463.000
53.48000 461.000
53.52000 393.000
53.56000 450.000
53.60000 460.000
53.64000 448.000
53.68000 466.000
53.72000 476.000
53.76000 461.000
53.80000 426.000
53.84000 435.000
53.88000 426.000
53.92000 444.000
53.96000 423.000
54.00000 422.000
54.04000 407.000
54.08000 410.000
54.12000 424.000
54.16000 424.000
54.20000 423.000
54.24000 498.000
54.28000 435.000
54.32000 415.000
54.36000 415.000
54.40000 464.000
54.44000 417.000
54.48000 389.000
54.52000 433.000
54.56000 456.000
54.60000 468.000
54.64000 406.000
54.68000 430.000
54.72000 470.000
54.76000 432.000
54.80000 498.000
54.84000 447.000
54.88000 487.000
54.92000 437.000
54.96000 455.000
55.00000 454.000
55.04000 458.000
55.08000 475.000
55.12000 475.000
55.16000 436.000
55.20000 448.000
55.24000 458.000
55.28000 433.000
55.32000 466.000
55.36000 439.000
55.40000 460.000
55.44000 419.000
55.48000 451.000
55.52000 476.000
55.56000 454.000
55.60000 496.000
55.64000 456.000
55.68000 411.000
55.72000 412.000
55.76000 462.000
55.80000 407.000
55.84000 449.000
55.88000 423.000
55.92000 442.000
55.96000 443.000
56.00000 449.000
56.04000 454.000
56.08000 441.000
56.12000 440.000
56.16000 426.000
56.20000 402.000
56.24000 428.000
56.28000 433.000
56.32000 418.000
56.36000 439.000
56.40000 448.000
56.44000 430.000
56.48000 457.000
56.52000 446.000
56.56000 447.000
56.60000 439.000
56.64000 446.000
56.68000 415.000
56.72000 423.000
56.76000 456.000
56.80000 449.000
56.84000 432.000
56.88000 450.000
56.92000 457.000
56.96000 441.000
57.00000 410.000
57.04000 462.000
57.08000 435.000
57.12000 452.000
57.16000 450.000
57.20000 441.000
57.24000 429.000
57.28000 441.000
57.32000 405.000
57.36000 454.000
57.40000 421.000
57.44000 448.000
57.48000 472.000
57.52000 423.000
57.56000 447.000
57.60000 446.000
57.64000 425.000
57.68000 434.000
57.72000 435.000
57.76000 416.000
57.80000 424.000
57.84000 422.000
57.88000 432.000
57.92000 445.000
57.96000 427.000
58.00000 431.000
58.04000 431.000
58.08000 457.000
58.12000 435.000
58.16000 430.000
58.20000 426.000
58.24000 446.000
58.28000 441.000
58.32000 451.000
58.36000 443.000
58.40000 427.000
58.44000 427.000
58.48000 396.000
58.52000 464.000
58.56000 416.000
58.60000 408.000
58.64000 431.000
58.68000 454.000
58.72000 452.000
58.76000 444.000
58.80000 435.000
58.84000 467.000
58.88000 446.000
58.92000 456.000
58.96000 440.000
59.00000 421.000
59.04000 427.000
59.08000 441.000
59.12000 431.000
59.16000 474.000
59.20000 447.000
59.24000 436.000
59.28000 453.000
59.32000 387.000
59.36000 410.000
59.40000 432.000
59.44000 438.000
59.48000 452.000
59.52000 438.000
59.56000 426.000
59.60000 420.000
59.64000 446.000
59.68000 464.000
59.72000 453.000
59.76000 472.000
59.80000 455.000
59.84000 452.000
59.88000 453.000
59.92000 410.000