File: XRD/49.xy
5.00000 1539.000
5.04000 1352.000
5.08000 1377.000
5.12000 1346.000
5.16000 1375.000
5.20000 1353.000
5.24000 1352.000
5.28000 1285.000
5.32000 1299.000
5.36000 1295.000
5.40000 1317.000
5.44000 1306.000
5.48000 1261.000
5.52000 1245.000
5.56000 1292.000
5.60000 1307.000
5.64000 1261.000
5.68000 1266.000
5.72000 1215.000
5.76000 1227.000
5.80000 1169.000
5.84000 1198.000
5.88000 1182.000
5.92000 1195.000
5.96000 1177.000
6.00000 1208.000
6.04000 1122.000
6.08000 1228.000
6.12000 1152.000
6.16000 1111.000
6.20000 1073.000
6.24000 1081.000
6.28000 1124.000
6.32000 1056.000
6.36000 1101.000
6.40000 1131.000
6.44000 1123.000
6.48000 1093.000
6.52000 1081.000
6.56000 1063.000
6.60000 1043.000
6.64000 1016.000
6.68000 1100.000
6.72000 1051.000
6.76000 1087.000
6.80000 1038.000
6.84000 1026.000
6.88000 1017.000
6.92000 1011.000
6.96000 1093.000
7.00000 1016.000
7.04000 1028.000
7.08000 1026.000
7.12000 991.000
7.16000 1031.000
7.20000 939.000
7.24000 1012.000
7.28000 961.000
7.32000 1024.000
7.36000 938.000
7.40000 944.000
7.44000 961.000
7.48000 973.000
7.52000 976.000
7.56000 989.000
7.60000 980.000
7.64000 1040.000
7.68000 1028.000
7.72000 909.000
7.76000 965.000
7.80000 957.000
7.84000 1000.000
7.88000 971.000
7.92000 966.000
7.96000 1019.000
8.00000 994.000
8.04000 996.000
8.08000 1007.000
8.12000 1007.000
8.16000 1040.000
8.20000 965.000
8.24000 1033.000
8.28000 1024.000
8.32000 1021.000
8.36000 964.000
8.40000 1009.000
8.44000 985.000
8.48000 949.000
8.52000 919.000
8.56000 930.000
8.60000 958.000
8.64000 953.000
8.68000 858.000
8.72000 888.000
8.76000 870.000
8.80000 862.000
8.84000 832.000
8.88000 800.000
8.92000 826.000
8.96000 828.000
9.00000 815.000
9.04000 774.000
9.08000 718.000
9.12000 788.000
9.16000 837.000
9.20000 795.000
9.24000 762.000
9.28000 763.000
9.32000 798.000
9.36000 784.000
9.40000 788.000
9.44000 749.000
9.48000 791.000
9.52000 807.000
9.56000 763.000
9.60000 757.000
9.64000 760.000
9.68000 744.000
9.72000 764.000
9.76000 709.000
9.80000 734.000
9.84000 722.000
9.88000 774.000
9.92000 698.000
9.96000 720.000
10.00000 783.000
10.04000 715.000
10.08000 729.000
10.12000 745.000
10.16000 754.000
10.20000 750.000
10.24000 688.000
10.28000 753.000
10.32000 748.000
10.36000 710.000
10.40000 739.000
10.44000 704.000
10.48000 719.000
10.52000 707.000
10.56000 769.000
10.60000 696.000
10.64000 720.000
10.68000 745.000
10.72000 726.000
10.76000 676.000
10.80000 678.000
10.84000 728.000
10.88000 693.000
10.92000 729.000
10.96000 730.000
11.00000 671.000
11.04000 693.000
11.08000 719.000
11.12000 696.000
11.16000 728.000
11.20000 700.000
11.24000 652.000
11.28000 751.000
11.32000 695.000
11.36000 722.000
11.40000 683.000
11.44000 728.000
11.48000 688.000
11.52000 642.000
11.56000 716.000
11.60000 671.000
11.64000 718.000
11.68000 700.000
11.72000 668.000
11.76000 721.000
11.80000 738.000
11.84000 744.000
11.88000 710.000
11.92000 774.000
11.96000 754.000
12.00000 779.000
12.04000 753.000
12.08000 807.000
12.12000 807.000
12.16000 813.000
12.20000 836.000
12.24000 780.000
12.28000 796.000
12.32000 747.000
12.36000 765.000
12.40000 771.000
12.44000 801.000
12.48000 767.000
12.52000 750.000
12.56000 826.000
12.60000 843.000
12.64000 853.000
12.68000 898.000
12.72000 968.000
12.76000 950.000
12.80000 912.000
12.84000 939.000
12.88000 1010.000
12.92000 917.000
12.96000 887.000
13.00000 877.000
13.04000 798.000
13.08000 797.000
13.12000 733.000
13.16000 730.000
13.20000 728.000
13.24000 669.000
13.28000 666.000
13.32000 664.000
13.36000 658.000
13.40000 686.000
13.44000 649.000
13.48000 656.000
13.52000 627.000
13.56000 648.000
13.60000 595.000
13.64000 711.000
13.68000 658.000
13.72000 657.000
13.76000 691.000
13.80000 645.000
13.84000 664.000
13.88000 655.000
13.92000 638.000
13.96000 655.000
14.00000 683.000
14.04000 621.000
14.08000 633.000
14.12000 681.000
14.16000 643.000
14.20000 588.000
14.24000 616.000
14.28000 688.000
14.32000 668.000
14.36000 633.000
14.40000 619.000
14.44000 665.000
14.48000 686.000
14.52000 624.000
14.56000 666.000
14.60000 724.000
14.64000 644.000
14.68000 692.000
14.72000 736.000
14.76000 678.000
14.80000 706.000
14.84000 701.000
14.88000 619.000
14.92000 694.000
14.96000 653.000
15.00000 658.000
15.04000 652.000
15.08000 636.000
15.12000 690.000
15.16000 706.000
15.20000 718.000
15.24000 661.000
15.28000 686.000
15.32000 710.000
15.36000 687.000
15.40000 655.000
15.44000 681.000
15.48000 700.000
15.52000 660.000
15.56000 689.000
15.60000 702.000
15.64000 679.000
15.68000 730.000
15.72000 629.000
15.76000 718.000
15.80000 710.000
15.84000 717.000
15.88000 691.000
15.92000 739.000
15.96000 710.000
16.00000 725.000
16.04000 711.000
16.08000 730.000
16.12000 699.000
16.16000 729.000
16.20000 761.000
16.24000 742.000
16.28000 679.000
16.32000 817.000
16.36000 731.000
16.40000 747.000
16.44000 743.000
16.48000 718.000
16.52000 788.000
16.56000 772.000
16.60000 800.000
16.64000 780.000
16.68000 800.000
16.72000 777.000
16.76000 820.000
16.80000 881.000
16.84000 780.000
16.88000 794.000
16.92000 822.000
16.96000 817.000
17.00000 740.000
17.04000 775.000
17.08000 838.000
17.12000 764.000
17.16000 820.000
17.20000 825.000
17.24000 789.000
17.28000 769.000
17.32000 786.000
17.36000 769.000
17.40000 779.000
17.44000 759.000
17.48000 747.000
17.52000 835.000
17.56000 818.000
17.60000 825.000
17.64000 842.000
17.68000 805.000
17.72000 785.000
17.76000 772.000
17.80000 818.000
17.84000 829.000
17.88000 807.000
17.92000 848.000
17.96000 847.000
18.00000 820.000
18.04000 786.000
18.08000 814.000
18.12000 799.000
18.16000 810.000
18.20000 788.000
18.24000 858.000
18.28000 921.000
18.32000 846.000
18.36000 881.000
18.40000 836.000
18.44000 846.000
18.48000 865.000
18.52000 804.000
18.56000 826.000
18.60000 882.000
18.64000 842.000
18.68000 873.000
18.72000 912.000
18.76000 820.000
18.80000 938.000
18.84000 900.000
18.88000 890.000
18.92000 851.000
18.96000 881.000
19.00000 883.000
19.04000 892.000
19.08000 931.000
19.12000 870.000
19.16000 910.000
19.20000 913.000
19.24000 907.000
19.28000 957.000
19.32000 907.000
19.36000 963.000
19.40000 936.000
19.44000 913.000
19.48000 1003.000
19.52000 907.000
19.56000 916.000
19.60000 931.000
19.64000 951.000
19.68000 950.000
19.72000 966.000
19.76000 968.000
19.80000 945.000
19.84000 921.000
19.88000 1010.000
19.92000 917.000
19.96000 998.000
20.00000 975.000
20.04000 924.000
20.08000 1026.000
20.12000 1017.000
20.16000 995.000
20.20000 1022.000
20.24000 1070.000
20.28000 957.000
20.32000 1074.000
20.36000 1016.000
20.40000 1042.000
20.44000 1053.000
20.48000 1049.000
20.52000 1151.000
20.56000 1001.000
20.60000 993.000
20.64000 1033.000
20.68000 1076.000
20.72000 1050.000
20.76000 1057.000
20.80000 1125.000
20.84000 1087.000
20.88000 1096.000
20.92000 1189.000
20.96000 1157.000
21.00000 1138.000
21.04000 1173.000
21.08000 1188.000
21.12000 1183.000
21.16000 1157.000
21.20000 1189.000
21.24000 1160.000
21.28000 1181.000
21.32000 1120.000
21.36000 1105.000
21.40000 1151.000
21.44000 1117.000
21.48000 1166.000
21.52000 1073.000
21.56000 1133.000
21.60000 1150.000
21.64000 1144.000
21.68000 1180.000
21.72000 1099.000
21.76000 1094.000
21.80000 1100.000
21.84000 1148.000
21.88000 1143.000
21.92000 1141.000
21.96000 1146.000
22.00000 1188.000
22.04000 1254.000
22.08000 1158.000
22.12000 1169.000
22.16000 1174.000
22.20000 1149.000
22.24000 1153.000
22.28000 1114.000
22.32000 1192.000
22.36000 1176.000
22.40000 1204.000
22.44000 1154.000
22.48000 1129.000
22.52000 1176.000
22.56000 1163.000
22.60000 1189.000
22.64000 1217.000
22.68000 1166.000
22.72000 1321.000
22.76000 1229.000
22.80000 1209.000
22.84000 1207.000
22.88000 1143.000
22.92000 1184.000
22.96000 1251.000
23.00000 1325.000
23.04000 1237.000
23.08000 1177.000
23.12000 1178.000
23.16000 1234.000
23.20000 1214.000
23.24000 1272.000
23.28000 1228.000
23.32000 1224.000
23.36000 1166.000
23.40000 1210.000
23.44000 1237.000
23.48000 1223.000
23.52000 1255.000
23.56000 1194.000
23.60000 1201.000
23.64000 1190.000
23.68000 1273.000
23.72000 1213.000
23.76000 1225.000
23.80000 1294.000
23.84000 1232.000
23.88000 1270.000
23.92000 1250.000
23.96000 1192.000
24.00000 1307.000
24.04000 1360.000
24.08000 1237.000
24.12000 1290.000
24.16000 1327.000
24.20000 1341.000
24.24000 1371.000
24.28000 1390.000
24.32000 1355.000
24.36000 1358.000
24.40000 1433.000
24.44000 1458.000
24.48000 1369.000
24.52000 1428.000
24.56000 1378.000
24.60000 1402.000
24.64000 1358.000
24.68000 1380.000
24.72000 1380.000
24.76000 1420.000
24.80000 1465.000
24.84000 1455.000
24.88000 1545.000
24.92000 1507.000
24.96000 1588.000
25.00000 1561.000
25.04000 1690.000
25.08000 1696.000
25.12000 1725.000
25.16000 1858.000
25.20000 1931.000
25.24000 1973.000
25.28000 1996.000
25.32000 2078.000
25.36000 2079.000
25.40000 2031.000
25.44000 1990.000
25.48000 1903.000
25.52000 1871.000
25.56000 1919.000
25.60000 1877.000
25.64000 1725.000
25.68000 1781.000
25.72000 1738.000
25.76000 1699.000
25.80000 1686.000
25.84000 1728.000
25.88000 1677.000
25.92000 1698.000
25.96000 1717.000
26.00000 1636.000
26.04000 1610.000
26.08000 1511.000
26.12000 1563.000
26.16000 1507.000
26.20000 1425.000
26.24000 1407.000
26.28000 1326.000
26.32000 1289.000
26.36000 1269.000
26.40000 1283.000
26.44000 1292.000
26.48000 1291.000
26.52000 1226.000
26.56000 1253.000
26.60000 1225.000
26.64000 1212.000
26.68000 1177.000
26.72000 1216.000
26.76000 1260.000
26.80000 1206.000
26.84000 1163.000
26.88000 1192.000
26.92000 1271.000
26.96000 1245.000
27.00000 1216.000
27.04000 1212.000
27.08000 1236.000
27.12000 1267.000
27.16000 1265.000
27.20000 1228.000
27.24000 1295.000
27.28000 1283.000
27.32000 1378.000
27.36000 1330.000
27.40000 1429.000
27.44000 1426.000
27.48000 1493.000
27.52000 1494.000
27.56000 1542.000
27.60000 1488.000
27.64000 1491.000
27.68000 1455.000
27.72000 1462.000
27.76000 1455.000
27.80000 1446.000
27.84000 1376.000
27.88000 1313.000
27.92000 1350.000
27.96000 1255.000
28.00000 1260.000
28.04000 1242.000
28.08000 1208.000
28.12000 1190.000
28.16000 1233.000
28.20000 1207.000
28.24000 1273.000
28.28000 1101.000
28.32000 1146.000
28.36000 1113.000
28.40000 1184.000
28.44000 1112.000
28.48000 1100.000
28.52000 1114.000
28.56000 1156.000
28.60000 1114.000
28.64000 1157.000
28.68000 1110.000
28.72000 1105.000
28.76000 1115.000
28.80000 1108.000
28.84000 1121.000
28.88000 1167.000
28.92000 1124.000
28.96000 1098.000
29.00000 1095.000
29.04000 1037.000
29.08000 1084.000
29.12000 1051.000
29.16000 1094.000
29.20000 1102.000
29.24000 1113.000
29.28000 1134.000
29.32000 1157.000
29.36000 1105.000
29.40000 1152.000
29.44000 1094.000
29.48000 1177.000
29.52000 1160.000
29.56000 1167.000
29.60000 1191.000
29.64000 1212.000
29.68000 1284.000
29.72000 1273.000
29.76000 1274.000
29.80000 1370.000
29.84000 1409.000
29.88000 1390.000
29.92000 1448.000
29.96000 1344.000
30.00000 1338.000
30.04000 1259.000
30.08000 1245.000
30.12000 1184.000
30.16000 1197.000
30.20000 1183.000
30.24000 1072.000
30.28000 1104.000
30.32000 1103.000
30.36000 1124.000
30.40000 1101.000
30.44000 1055.000
30.48000 1023.000
30.52000 985.000
30.56000 1016.000
30.60000 1078.000
30.64000 1033.000
30.68000 1037.000
30.72000 1014.000
30.76000 1005.000
30.80000 1003.000
30.84000 977.000
30.88000 1031.000
30.92000 1026.000
30.96000 1050.000
31.00000 968.000
31.04000 967.000
31.08000 1000.000
31.12000 945.000
31.16000 1000.000
31.20000 987.000
31.24000 984.000
31.28000 965.000
31.32000 935.000
31.36000 964.000
31.40000 973.000
31.44000 901.000
31.48000 978.000
31.52000 916.000
31.56000 960.000
31.60000 946.000
31.64000 914.000
31.68000 952.000
31.72000 962.000
31.76000 914.000
31.80000 940.000
31.84000 975.000
31.88000 878.000
31.92000 961.000
31.96000 983.000
32.00000 976.000
32.04000 984.000
32.08000 921.000
32.12000 1034.000
32.16000 957.000
32.20000 1017.000
32.24000 1038.000
32.28000 1052.000
32.32000 1026.000
32.36000 1105.000
32.40000 1061.000
32.44000 1123.000
32.48000 1086.000
32.52000 1155.000
32.56000 1092.000
32.60000 1185.000
32.64000 1101.000
32.68000 1116.000
32.72000 1111.000
32.76000 1023.000
32.80000 1069.000
32.84000 1031.000
32.88000 978.000
32.92000 996.000
32.96000 912.000
33.00000 984.000
33.04000 927.000
33.08000 914.000
33.12000 929.000
33.16000 953.000
33.20000 943.000
33.24000 877.000
33.28000 920.000
33.32000 872.000
33.36000 867.000
33.40000 864.000
33.44000 895.000
33.48000 826.000
33.52000 813.000
33.56000 847.000
33.60000 807.000
33.64000 831.000
33.68000 819.000
33.72000 807.000
33.76000 770.000
33.80000 819.000
33.84000 771.000
33.88000 807.000
33.92000 801.000
33.96000 813.000
34.00000 802.000
34.04000 787.000
34.08000 777.000
34.12000 779.000
34.16000 746.000
34.20000 805.000
34.24000 761.000
34.28000 751.000
34.32000 796.000
34.36000 726.000
34.40000 746.000
34.44000 728.000
34.48000 721.000
34.52000 654.000
34.56000 777.000
34.60000 711.000
34.64000 697.000
34.68000 727.000
34.72000 723.000
34.76000 781.000
34.80000 682.000
34.84000 679.000
34.88000 701.000
34.92000 764.000
34.96000 659.000
35.00000 732.000
35.04000 685.000
35.08000 716.000
35.12000 720.000
35.16000 664.000
35.20000 695.000
35.24000 706.000
35.28000 715.000
35.32000 708.000
35.36000 669.000
35.40000 669.000
35.44000 681.000
35.48000 654.000
35.52000 677.000
35.56000 704.000
35.60000 669.000
35.64000 691.000
35.68000 681.000
35.72000 657.000
35.76000 679.000
35.80000 665.000
35.84000 676.000
35.88000 639.000
35.92000 576.000
35.96000 658.000
36.00000 622.000
36.04000 632.000
36.08000 702.000
36.12000 675.000
36.16000 611.000
36.20000 662.000
36.24000 630.000
36.28000 641.000
36.32000 637.000
36.36000 612.000
36.40000 624.000
36.44000 586.000
36.48000 617.000
36.52000 569.000
36.56000 607.000
36.60000 638.000
36.64000 624.000
36.68000 647.000
36.72000 576.000
36.76000 566.000
36.80000 630.000
36.84000 593.000
36.88000 635.000
36.92000 661.000
36.96000 620.000
37.00000 582.000
37.04000 642.000
37.08000 617.000
37.12000 607.000
37.16000 588.000
37.20000 627.000
37.24000 578.000
37.28000 577.000
37.32000 618.000
37.36000 555.000
37.40000 575.000
37.44000 600.000
37.48000 580.000
37.52000 551.000
37.56000 570.000
37.60000 560.000
37.64000 599.000
37.68000 588.000
37.72000 561.000
37.76000 561.000
37.80000 580.000
37.84000 602.000
37.88000 540.000
37.92000 534.000
37.96000 590.000
38.00000 551.000
38.04000 559.000
38.08000 517.000
38.12000 565.000
38.16000 516.000
38.20000 540.000
38.24000 598.000
38.28000 534.000
38.32000 564.000
38.36000 552.000
38.40000 560.000
38.44000 568.000
38.48000 558.000
38.52000 530.000
38.56000 576.000
38.60000 600.000
38.64000 555.000
38.68000 584.000
38.72000 615.000
38.76000 563.000
38.80000 597.000
38.84000 598.000
38.88000 624.000
38.92000 577.000
38.96000 608.000
39.00000 579.000
39.04000 628.000
39.08000 587.000
39.12000 595.000
39.16000 599.000
39.20000 615.000
39.24000 564.000
39.28000 499.000
39.32000 521.000
39.36000 592.000
39.40000 581.000
39.44000 512.000
39.48000 497.000
39.52000 545.000
39.56000 569.000
39.60000 569.000
39.64000 565.000
39.68000 544.000
39.72000 547.000
39.76000 542.000
39.80000 574.000
39.84000 539.000
39.88000 511.000
39.92000 496.000
39.96000 523.000
40.00000 527.000
40.04000 541.000
40.08000 551.000
40.12000 498.000
40.16000 541.000
40.20000 519.000
40.24000 522.000
40.28000 536.000
40.32000 551.000
40.36000 569.000
40.40000 543.000
40.44000 534.000
40.48000 536.000
40.52000 577.000
40.56000 510.000
40.60000 524.000
40.64000 512.000
40.68000 551.000
40.72000 528.000
40.76000 555.000
40.80000 499.000
40.84000 576.000
40.88000 538.000
40.92000 534.000
40.96000 533.000
41.00000 564.000
41.04000 548.000
41.08000 548.000
41.12000 535.000
41.16000 526.000
41.20000 585.000
41.24000 495.000
41.28000 570.000
41.32000 533.000
41.36000 519.000
41.40000 548.000
41.44000 555.000
41.48000 551.000
41.52000 543.000
41.56000 542.000
41.60000 474.000
41.64000 573.000
41.68000 501.000
41.72000 488.000
41.76000 544.000
41.80000 549.000
41.84000 620.000
41.88000 536.000
41.92000 646.000
41.96000 549.000
42.00000 546.000
42.04000 552.000
42.08000 534.000
42.12000 594.000
42.16000 584.000
42.20000 567.000
42.24000 574.000
42.28000 588.000
42.32000 615.000
42.36000 621.000
42.40000 588.000
42.44000 575.000
42.48000 653.000
42.52000 661.000
42.56000 598.000
42.60000 584.000
42.64000 575.000
42.68000 635.000
42.72000 574.000
42.76000 629.000
42.80000 626.000
42.84000 650.000
42.88000 624.000
42.92000 643.000
42.96000 595.000
43.00000 647.000
43.04000 664.000
43.08000 646.000
43.12000 650.000
43.16000 671.000
43.20000 655.000
43.24000 653.000
43.28000 652.000
43.32000 628.000
43.36000 626.000
43.40000 628.000
43.44000 604.000
43.48000 598.000
43.52000 557.000
43.56000 582.000
43.60000 594.000
43.64000 542.000
43.68000 561.000
43.72000 510.000
43.76000 524.000
43.80000 513.000
43.84000 527.000
43.88000 541.000
43.92000 529.000
43.96000 510.000
44.00000 553.000
44.04000 581.000
44.08000 563.000
44.12000 496.000
44.16000 518.000
44.20000 522.000
44.24000 513.000
44.28000 486.000
44.32000 554.000
44.36000 529.000
44.40000 523.000
44.44000 527.000
44.48000 526.000
44.52000 536.000
44.56000 523.000
44.60000 514.000
44.64000 512.000
44.68000 543.000
44.72000 529.000
44.76000 542.000
44.80000 510.000
44.84000 539.000
44.88000 551.000
44.92000 555.000
44.96000 526.000
45.00000 519.000
45.04000 515.000
45.08000 489.000
45.12000 520.000
45.16000 520.000
45.20000 543.000
45.24000 498.000
45.28000 485.000
45.32000 576.000
45.36000 502.000
45.40000 549.000
45.44000 502.000
45.48000 474.000
45.52000 536.000
45.56000 529.000
45.60000 534.000
45.64000 515.000
45.68000 571.000
45.72000 515.000
45.76000 525.000
45.80000 500.000
45.84000 542.000
45.88000 573.000
45.92000 549.000
45.96000 591.000
46.00000 598.000
46.04000 604.000
46.08000 556.000
46.12000 596.000
46.16000 616.000
46.20000 582.000
46.24000 587.000
46.28000 587.000
46.32000 534.000
46.36000 573.000
46.40000 533.000
46.44000 523.000
46.48000 580.000
46.52000 538.000
46.56000 532.000
46.60000 517.000
46.64000 549.000
46.68000 504.000
46.72000 486.000
46.76000 521.000
46.80000 535.000
46.84000 537.000
46.88000 536.000
46.92000 468.000
46.96000 488.000
47.00000 479.000
47.04000 467.000
47.08000 501.000
47.12000 449.000
47.16000 439.000
47.20000 465.000
47.24000 474.000
47.28000 478.000
47.32000 479.000
47.36000 445.000
47.40000 433.000
47.44000 518.000
47.48000 471.000
47.52000 446.000
47.56000 449.000
47.60000 455.000
47.64000 464.000
47.68000 497.000
47.72000 497.000
47.76000 444.000
47.80000 462.000
47.84000 443.000
47.88000 458.000
47.92000 479.000
47.96000 462.000
48.00000 467.000
48.04000 496.000
48.08000 492.000
48.12000 458.000
48.16000 461.000
48.20000 428.000
48.24000 474.000
48.28000 455.000
48.32000 437.000
48.36000 467.000
48.40000 471.000
48.44000 470.000
48.48000 462.000
48.52000 464.000
48.56000 476.000
48.60000 470.000
48.64000 490.000
48.68000 489.000
48.72000 457.000
48.76000 464.000
48.80000 462.000
48.84000 484.000
48.88000 480.000
48.92000 506.000
48.96000 487.000
49.00000 501.000
49.04000 441.000
49.08000 470.000
49.12000 499.000
49.16000 468.000
49.20000 471.000
49.24000 437.000
49.28000 494.000
49.32000 468.000
49.36000 421.000
49.40000 430.000
49.44000 482.000
49.48000 505.000
49.52000 452.000
49.56000 483.000
49.60000 457.000
49.64000 440.000
49.68000 432.000
49.72000 431.000
49.76000 415.000
49.80000 431.000
49.84000 451.000
49.88000 476.000
49.92000 458.000
49.96000 465.000
50.00000 530.000
50.04000 494.000
50.08000 447.000
50.12000 469.000
50.16000 475.000
50.20000 464.000
50.24000 491.000
50.28000 460.000
50.32000 472.000
50.36000 476.000
50.40000 489.000
50.44000 473.000
50.48000 502.000
50.52000 511.000
50.56000 504.000
50.60000 484.000
50.64000 490.000
50.68000 502.000
50.72000 482.000
50.76000 500.000
50.80000 542.000
50.84000 480.000
50.88000 493.000
50.92000 519.000
50.96000 531.000
51.00000 488.000
51.04000 466.000
51.08000 450.000
51.12000 476.000
51.16000 474.000
51.20000 474.000
51.24000 464.000
51.28000 440.000
51.32000 482.000
51.36000 477.000
51.40000 464.000
51.44000 467.000
51.48000 466.000
51.52000 491.000
51.56000 463.000
51.60000 452.000
51.64000 478.000
51.68000 491.000
51.72000 461.000
51.76000 484.000
51.80000 487.000
51.84000 459.000
51.88000 499.000
51.92000 505.000
51.96000 508.000
52.00000 527.000
52.04000 485.000
52.08000 522.000
52.12000 478.000
52.16000 522.000
52.20000 519.000
52.24000 554.000
52.28000 475.000
52.32000 476.000
52.36000 492.000
52.40000 513.000
52.44000 505.000
52.48000 459.000
52.52000 446.000
52.56000 441.000
52.60000 453.000
52.64000 462.000
52.68000 472.000
52.72000 445.000
52.76000 442.000
52.80000 419.000
52.84000 427.000
52.88000 412.000
52.92000 439.000
52.96000 419.000
53.00000 431.000
53.04000 473.000
53.08000 465.000
53.12000 437.000
53.16000 457.000
53.20000 444.000
53.24000 427.000
53.28000 494.000
53.32000 474.000
53.36000 459.000
53.40000 433.000
53.44000 428.000
53.48000 499.000
53.52000 461.000
53.56000 484.000
53.60000 458.000
53.64000 432.000
53.68000 462.000
53.72000 460.000
53.76000 446.000
53.80000 431.000
53.84000 425.000
53.88000 451.000
53.92000 418.000
53.96000 456.000
54.00000 487.000
54.04000 461.000
54.08000 462.000
54.12000 449.000
54.16000 433.000
54.20000 441.000
54.24000 449.000
54.28000 463.000
54.32000 439.000
54.36000 448.000
54.40000 449.000
54.44000 468.000
54.48000 435.000
54.52000 488.000
54.56000 460.000
54.60000 412.000
54.64000 470.000
54.68000 459.000
54.72000 453.000
54.76000 425.000
54.80000 450.000
54.84000 453.000
54.88000 429.000
54.92000 463.000
54.96000 459.000
55.00000 465.000
55.04000 474.000
55.08000 483.000
55.12000 488.000
55.16000 443.000
55.20000 488.000
55.24000 450.000
55.28000 409.000
55.32000 467.000
55.36000 446.000
55.40000 413.000
55.44000 447.000
55.48000 436.000
55.52000 448.000
55.56000 479.000
55.60000 438.000
55.64000 479.000
55.68000 419.000
55.72000 422.000
55.76000 425.000
55.80000 463.000
55.84000 446.000
55.88000 429.000
55.92000 428.000
55.96000 447.000
56.00000 439.000
56.04000 392.000
56.08000 447.000
56.12000 419.000
56.16000 473.000
56.20000 434.000
56.24000 424.000
56.28000 430.000
56.32000 409.000
56.36000 420.000
56.40000 446.000
56.44000 426.000
56.48000 398.000
56.52000 412.000
56.56000 443.000
56.60000 429.000
56.64000 447.000
56.68000 451.000
56.72000 433.000
56.76000 402.000
56.80000 447.000
56.84000 453.000
56.88000 439.000
56.92000 440.000
56.96000 429.000
57.00000 438.000
57.04000 406.000
57.08000 451.000
57.12000 431.000
57.16000 450.000
57.20000 425.000
57.24000 436.000
57.28000 428.000
57.32000 428.000
57.36000 436.000
57.40000 440.000
57.44000 403.000
57.48000 439.000
57.52000 430.000
57.56000 415.000
57.60000 457.000
57.64000 394.000
57.68000 415.000
57.72000 445.000
57.76000 415.000
57.80000 408.000
57.84000 448.000
57.88000 444.000
57.92000 439.000
57.96000 448.000
58.00000 434.000
58.04000 445.000
58.08000 445.000
58.12000 398.000
58.16000 437.000
58.20000 417.000
58.24000 422.000
58.28000 434.000
58.32000 430.000
58.36000 444.000
58.40000 401.000
58.44000 445.000
58.48000 424.000
58.52000 434.000
58.56000 419.000
58.60000 457.000
58.64000 444.000
58.68000 446.000
58.72000 438.000
58.76000 446.000
58.80000 447.000
58.84000 463.000
58.88000 427.000
58.92000 441.000
58.96000 437.000
59.00000 471.000
59.04000 449.000
59.08000 421.000
59.12000 433.000
59.16000 418.000
59.20000 445.000
59.24000 454.000
59.28000 423.000
59.32000 403.000
59.36000 410.000
59.40000 449.000
59.44000 462.000
59.48000 416.000
59.52000 438.000
59.56000 467.000
59.60000 462.000
59.64000 425.000
59.68000 475.000
59.72000 433.000
59.76000 448.000
59.80000 449.000
59.84000 466.000
59.88000 426.000
59.92000 446.000