File: XRD/5.xy
5.00000 559.000
5.04000 547.000
5.08000 580.000
5.12000 560.000
5.16000 620.000
5.20000 557.000
5.24000 566.000
5.28000 591.000
5.32000 555.000
5.36000 576.000
5.40000 556.000
5.44000 543.000
5.48000 528.000
5.52000 524.000
5.56000 547.000
5.60000 491.000
5.64000 525.000
5.68000 533.000
5.72000 507.000
5.76000 455.000
5.80000 518.000
5.84000 507.000
5.88000 529.000
5.92000 498.000
5.96000 476.000
6.00000 481.000
6.04000 500.000
6.08000 499.000
6.12000 463.000
6.16000 456.000
6.20000 470.000
6.24000 456.000
6.28000 470.000
6.32000 479.000
6.36000 465.000
6.40000 440.000
6.44000 459.000
6.48000 453.000
6.52000 446.000
6.56000 446.000
6.60000 431.000
6.64000 416.000
6.68000 478.000
6.72000 426.000
6.76000 464.000
6.80000 413.000
6.84000 414.000
6.88000 411.000
6.92000 451.000
6.96000 427.000
7.00000 405.000
7.04000 390.000
7.08000 423.000
7.12000 399.000
7.16000 384.000
7.20000 398.000
7.24000 425.000
7.28000 379.000
7.32000 416.000
7.36000 395.000
7.40000 396.000
7.44000 415.000
7.48000 412.000
7.52000 408.000
7.56000 382.000
7.60000 401.000
7.64000 376.000
7.68000 381.000
7.72000 392.000
7.76000 376.000
7.80000 393.000
7.84000 367.000
7.88000 404.000
7.92000 336.000
7.96000 409.000
8.00000 374.000
8.04000 354.000
8.08000 375.000
8.12000 346.000
8.16000 358.000
8.20000 345.000
8.24000 325.000
8.28000 335.000
8.32000 364.000
8.36000 346.000
8.40000 334.000
8.44000 327.000
8.48000 351.000
8.52000 352.000
8.56000 325.000
8.60000 364.000
8.64000 344.000
8.68000 326.000
8.72000 320.000
8.76000 319.000
8.80000 314.000
8.84000 324.000
8.88000 321.000
8.92000 331.000
8.96000 325.000
9.00000 303.000
9.04000 284.000
9.08000 291.000
9.12000 320.000
9.16000 310.000
9.20000 328.000
9.24000 287.000
9.28000 319.000
9.32000 333.000
9.36000 314.000
9.40000 257.000
9.44000 251.000
9.48000 309.000
9.52000 308.000
9.56000 286.000
9.60000 306.000
9.64000 286.000
9.68000 305.000
9.72000 311.000
9.76000 289.000
9.80000 277.000
9.84000 289.000
9.88000 279.000
9.92000 271.000
9.96000 276.000
10.00000 287.000
10.04000 305.000
10.08000 252.000
10.12000 287.000
10.16000 278.000
10.20000 290.000
10.24000 283.000
10.28000 250.000
10.32000 260.000
10.36000 281.000
10.40000 253.000
10.44000 248.000
10.48000 248.000
10.52000 262.000
10.56000 258.000
10.60000 269.000
10.64000 290.000
10.68000 232.000
10.72000 273.000
10.76000 272.000
10.80000 266.000
10.84000 222.000
10.88000 282.000
10.92000 290.000
10.96000 269.000
11.00000 260.000
11.04000 275.000
11.08000 242.000
11.12000 261.000
11.16000 209.000
11.20000 228.000
11.24000 273.000
11.28000 279.000
11.32000 271.000
11.36000 272.000
11.40000 245.000
11.44000 263.000
11.48000 257.000
11.52000 292.000
11.56000 316.000
11.60000 319.000
11.64000 302.000
11.68000 294.000
11.72000 318.000
11.76000 275.000
11.80000 259.000
11.84000 259.000
11.88000 252.000
11.92000 261.000
11.96000 250.000
12.00000 259.000
12.04000 247.000
12.08000 245.000
12.12000 260.000
12.16000 276.000
12.20000 271.000
12.24000 269.000
12.28000 275.000
12.32000 268.000
12.36000 258.000
12.40000 254.000
12.44000 271.000
12.48000 249.000
12.52000 249.000
12.56000 278.000
12.60000 258.000
12.64000 282.000
12.68000 304.000
12.72000 288.000
12.76000 258.000
12.80000 258.000
12.84000 262.000
12.88000 283.000
12.92000 294.000
12.96000 263.000
13.00000 267.000
13.04000 267.000
13.08000 283.000
13.12000 291.000
13.16000 284.000
13.20000 337.000
13.24000 299.000
13.28000 362.000
13.32000 352.000
13.36000 392.000
13.40000 396.000
13.44000 466.000
13.48000 489.000
13.52000 520.000
13.56000 594.000
13.60000 639.000
13.64000 725.000
13.68000 824.000
13.72000 896.000
13.76000 974.000
13.80000 1157.000
13.84000 1291.000
13.88000 1566.000
13.92000 1818.000
13.96000 2205.000
14.00000 2702.000
14.04000 3420.000
14.08000 4208.000
14.12000 5299.000
14.16000 6487.000
14.20000 7677.000
14.24000 7401.000
14.28000 5655.000
14.32000 3566.000
14.36000 2235.000
14.40000 1297.000
14.44000 879.000
14.48000 608.000
14.52000 516.000
14.56000 393.000
14.60000 336.000
14.64000 347.000
14.68000 307.000
14.72000 290.000
14.76000 239.000
14.80000 255.000
14.84000 248.000
14.88000 239.000
14.92000 232.000
14.96000 225.000
15.00000 218.000
15.04000 221.000
15.08000 229.000
15.12000 222.000
15.16000 214.000
15.20000 225.000
15.24000 240.000
15.28000 205.000
15.32000 201.000
15.36000 203.000
15.40000 234.000
15.44000 174.000
15.48000 219.000
15.52000 182.000
15.56000 176.000
15.60000 190.000
15.64000 199.000
15.68000 180.000
15.72000 190.000
15.76000 203.000
15.80000 174.000
15.84000 190.000
15.88000 201.000
15.92000 183.000
15.96000 201.000
16.00000 188.000
16.04000 209.000
16.08000 190.000
16.12000 185.000
16.16000 194.000
16.20000 205.000
16.24000 180.000
16.28000 179.000
16.32000 182.000
16.36000 196.000
16.40000 212.000
16.44000 221.000
16.48000 167.000
16.52000 191.000
16.56000 183.000
16.60000 170.000
16.64000 192.000
16.68000 203.000
16.72000 201.000
16.76000 181.000
16.80000 194.000
16.84000 171.000
16.88000 184.000
16.92000 188.000
16.96000 163.000
17.00000 197.000
17.04000 206.000
17.08000 182.000
17.12000 205.000
17.16000 210.000
17.20000 174.000
17.24000 178.000
17.28000 165.000
17.32000 188.000
17.36000 168.000
17.40000 164.000
17.44000 156.000
17.48000 173.000
17.52000 173.000
17.56000 198.000
17.60000 191.000
17.64000 161.000
17.68000 198.000
17.72000 181.000
17.76000 196.000
17.80000 168.000
17.84000 173.000
17.88000 191.000
17.92000 184.000
17.96000 167.000
18.00000 198.000
18.04000 178.000
18.08000 162.000
18.12000 186.000
18.16000 184.000
18.20000 185.000
18.24000 182.000
18.28000 186.000
18.32000 174.000
18.36000 193.000
18.40000 198.000
18.44000 194.000
18.48000 176.000
18.52000 182.000
18.56000 165.000
18.60000 206.000
18.64000 181.000
18.68000 184.000
18.72000 165.000
18.76000 184.000
18.80000 173.000
18.84000 183.000
18.88000 217.000
18.92000 211.000
18.96000 182.000
19.00000 185.000
19.04000 181.000
19.08000 191.000
19.12000 204.000
19.16000 180.000
19.20000 195.000
19.24000 186.000
19.28000 186.000
19.32000 178.000
19.36000 206.000
19.40000 175.000
19.44000 183.000
19.48000 208.000
19.52000 218.000
19.56000 180.000
19.60000 223.000
19.64000 202.000
19.68000 204.000
19.72000 245.000
19.76000 250.000
19.80000 281.000
19.84000 298.000
19.88000 354.000
19.92000 405.000
19.96000 491.000
20.00000 623.000
20.04000 697.000
20.08000 949.000
20.12000 1108.000
20.16000 1420.000
20.20000 1510.000
20.24000 1245.000
20.28000 897.000
20.32000 564.000
20.36000 348.000
20.40000 339.000
20.44000 252.000
20.48000 230.000
20.52000 194.000
20.56000 207.000
20.60000 211.000
20.64000 208.000
20.68000 203.000
20.72000 208.000
20.76000 175.000
20.80000 198.000
20.84000 183.000
20.88000 187.000
20.92000 183.000
20.96000 207.000
21.00000 196.000
21.04000 194.000
21.08000 193.000
21.12000 179.000
21.16000 203.000
21.20000 172.000
21.24000 181.000
21.28000 193.000
21.32000 187.000
21.36000 188.000
21.40000 216.000
21.44000 183.000
21.48000 188.000
21.52000 195.000
21.56000 220.000
21.60000 180.000
21.64000 203.000
21.68000 194.000
21.72000 187.000
21.76000 179.000
21.80000 193.000
21.84000 206.000
21.88000 195.000
21.92000 190.000
21.96000 212.000
22.00000 203.000
22.04000 199.000
22.08000 196.000
22.12000 170.000
22.16000 187.000
22.20000 170.000
22.24000 191.000
22.28000 201.000
22.32000 193.000
22.36000 179.000
22.40000 187.000
22.44000 174.000
22.48000 205.000
22.52000 167.000
22.56000 177.000
22.60000 185.000
22.64000 217.000
22.68000 197.000
22.72000 184.000
22.76000 183.000
22.80000 164.000
22.84000 184.000
22.88000 203.000
22.92000 163.000
22.96000 163.000
23.00000 158.000
23.04000 190.000
23.08000 189.000
23.12000 179.000
23.16000 180.000
23.20000 197.000
23.24000 184.000
23.28000 165.000
23.32000 195.000
23.36000 179.000
23.40000 181.000
23.44000 188.000
23.48000 185.000
23.52000 172.000
23.56000 193.000
23.60000 174.000
23.64000 181.000
23.68000 164.000
23.72000 186.000
23.76000 178.000
23.80000 173.000
23.84000 174.000
23.88000 193.000
23.92000 160.000
23.96000 165.000
24.00000 177.000
24.04000 174.000
24.08000 191.000
24.12000 175.000
24.16000 203.000
24.20000 189.000
24.24000 193.000
24.28000 167.000
24.32000 182.000
24.36000 202.000
24.40000 247.000
24.44000 228.000
24.48000 273.000
24.52000 286.000
24.56000 299.000
24.60000 313.000
24.64000 401.000
24.68000 533.000
24.72000 593.000
24.76000 738.000
24.80000 845.000
24.84000 783.000
24.88000 586.000
24.92000 473.000
24.96000 359.000
25.00000 317.000
25.04000 252.000
25.08000 208.000
25.12000 215.000
25.16000 210.000
25.20000 185.000
25.24000 191.000
25.28000 168.000
25.32000 179.000
25.36000 183.000
25.40000 173.000
25.44000 192.000
25.48000 177.000
25.52000 173.000
25.56000 197.000
25.60000 166.000
25.64000 186.000
25.68000 163.000
25.72000 187.000
25.76000 190.000
25.80000 155.000
25.84000 185.000
25.88000 187.000
25.92000 180.000
25.96000 153.000
26.00000 179.000
26.04000 203.000
26.08000 159.000
26.12000 176.000
26.16000 167.000
26.20000 177.000
26.24000 175.000
26.28000 173.000
26.32000 152.000
26.36000 175.000
26.40000 166.000
26.44000 166.000
26.48000 166.000
26.52000 171.000
26.56000 173.000
26.60000 165.000
26.64000 189.000
26.68000 183.000
26.72000 157.000
26.76000 171.000
26.80000 165.000
26.84000 169.000
26.88000 168.000
26.92000 204.000
26.96000 188.000
27.00000 176.000
27.04000 183.000
27.08000 202.000
27.12000 181.000
27.16000 181.000
27.20000 149.000
27.24000 174.000
27.28000 197.000
27.32000 174.000
27.36000 221.000
27.40000 209.000
27.44000 192.000
27.48000 221.000
27.52000 234.000
27.56000 207.000
27.60000 212.000
27.64000 174.000
27.68000 210.000
27.72000 188.000
27.76000 235.000
27.80000 209.000
27.84000 191.000
27.88000 227.000
27.92000 188.000
27.96000 209.000
28.00000 189.000
28.04000 228.000
28.08000 250.000
28.12000 227.000
28.16000 235.000
28.20000 234.000
28.24000 274.000
28.28000 310.000
28.32000 357.000
28.36000 416.000
28.40000 547.000
28.44000 675.000
28.48000 877.000
28.52000 1138.000
28.56000 1571.000
28.60000 1987.000
28.64000 2739.000
28.68000 3253.000
28.72000 3508.000
28.76000 3054.000
28.80000 2314.000
28.84000 1497.000
28.88000 1009.000
28.92000 646.000
28.96000 525.000
29.00000 358.000
29.04000 303.000
29.08000 281.000
29.12000 253.000
29.16000 193.000
29.20000 218.000
29.24000 172.000
29.28000 188.000
29.32000 203.000
29.36000 177.000
29.40000 163.000
29.44000 172.000
29.48000 178.000
29.52000 175.000
29.56000 178.000
29.60000 170.000
29.64000 173.000
29.68000 157.000
29.72000 167.000
29.76000 162.000
29.80000 159.000
29.84000 186.000
29.88000 165.000
29.92000 169.000
29.96000 153.000
30.00000 154.000
30.04000 132.000
30.08000 163.000
30.12000 135.000
30.16000 151.000
30.20000 169.000
30.24000 139.000
30.28000 136.000
30.32000 170.000
30.36000 144.000
30.40000 156.000
30.44000 122.000
30.48000 172.000
30.52000 128.000
30.56000 162.000
30.60000 151.000
30.64000 177.000
30.68000 177.000
30.72000 180.000
30.76000 176.000
30.80000 181.000
30.84000 163.000
30.88000 156.000
30.92000 171.000
30.96000 160.000
31.00000 150.000
31.04000 181.000
31.08000 143.000
31.12000 159.000
31.16000 151.000
31.20000 179.000
31.24000 154.000
31.28000 150.000
31.32000 153.000
31.36000 175.000
31.40000 164.000
31.44000 191.000
31.48000 185.000
31.52000 179.000
31.56000 152.000
31.60000 169.000
31.64000 176.000
31.68000 210.000
31.72000 220.000
31.76000 227.000
31.80000 280.000
31.84000 337.000
31.88000 405.000
31.92000 491.000
31.96000 683.000
32.00000 878.000
32.04000 1214.000
32.08000 1647.000
32.12000 2209.000
32.16000 2737.000
32.20000 3037.000
32.24000 2701.000
32.28000 2058.000
32.32000 1565.000
32.36000 1004.000
32.40000 630.000
32.44000 428.000
32.48000 306.000
32.52000 245.000
32.56000 195.000
32.60000 215.000
32.64000 182.000
32.68000 158.000
32.72000 176.000
32.76000 126.000
32.80000 150.000
32.84000 147.000
32.88000 125.000
32.92000 141.000
32.96000 146.000
33.00000 115.000
33.04000 122.000
33.08000 111.000
33.12000 133.000
33.16000 108.000
33.20000 133.000
33.24000 120.000
33.28000 109.000
33.32000 110.000
33.36000 128.000
33.40000 117.000
33.44000 109.000
33.48000 120.000
33.52000 123.000
33.56000 101.000
33.60000 135.000
33.64000 118.000
33.68000 112.000
33.72000 121.000
33.76000 106.000
33.80000 104.000
33.84000 113.000
33.88000 108.000
33.92000 108.000
33.96000 122.000
34.00000 127.000
34.04000 125.000
34.08000 102.000
34.12000 96.000
34.16000 117.000
34.20000 113.000
34.24000 106.000
34.28000 103.000
34.32000 97.000
34.36000 96.000
34.40000 118.000
34.44000 101.000
34.48000 100.000
34.52000 114.000
34.56000 106.000
34.60000 119.000
34.64000 113.000
34.68000 125.000
34.72000 106.000
34.76000 104.000
34.80000 114.000
34.84000 116.000
34.88000 110.000
34.92000 115.000
34.96000 111.000
35.00000 103.000
35.04000 132.000
35.08000 161.000
35.12000 162.000
35.16000 199.000
35.20000 219.000
35.24000 275.000
35.28000 387.000
35.32000 496.000
35.36000 517.000
35.40000 560.000
35.44000 498.000
35.48000 364.000
35.52000 280.000
35.56000 202.000
35.60000 186.000
35.64000 163.000
35.68000 124.000
35.72000 131.000
35.76000 120.000
35.80000 106.000
35.84000 107.000
35.88000 113.000
35.92000 99.000
35.96000 113.000
36.00000 79.000
36.04000 72.000
36.08000 102.000
36.12000 88.000
36.16000 88.000
36.20000 90.000
36.24000 95.000
36.28000 100.000
36.32000 106.000
36.36000 68.000
36.40000 86.000
36.44000 91.000
36.48000 86.000
36.52000 104.000
36.56000 95.000
36.60000 109.000
36.64000 94.000
36.68000 113.000
36.72000 114.000
36.76000 107.000
36.80000 107.000
36.84000 95.000
36.88000 95.000
36.92000 93.000
36.96000 101.000
37.00000 95.000
37.04000 73.000
37.08000 100.000
37.12000 98.000
37.16000 90.000
37.20000 89.000
37.24000 75.000
37.28000 91.000
37.32000 84.000
37.36000 97.000
37.40000 86.000
37.44000 96.000
37.48000 90.000
37.52000 77.000
37.56000 93.000
37.60000 85.000
37.64000 87.000
37.68000 95.000
37.72000 103.000
37.76000 89.000
37.80000 86.000
37.84000 80.000
37.88000 78.000
37.92000 111.000
37.96000 82.000
38.00000 86.000
38.04000 76.000
38.08000 89.000
38.12000 89.000
38.16000 84.000
38.20000 93.000
38.24000 96.000
38.28000 79.000
38.32000 104.000
38.36000 72.000
38.40000 94.000
38.44000 79.000
38.48000 90.000
38.52000 99.000
38.56000 76.000
38.60000 89.000
38.64000 85.000
38.68000 92.000
38.72000 84.000
38.76000 94.000
38.80000 106.000
38.84000 90.000
38.88000 89.000
38.92000 108.000
38.96000 101.000
39.00000 93.000
39.04000 96.000
39.08000 106.000
39.12000 94.000
39.16000 110.000
39.20000 105.000
39.24000 91.000
39.28000 103.000
39.32000 93.000
39.36000 100.000
39.40000 81.000
39.44000 119.000
39.48000 107.000
39.52000 90.000
39.56000 118.000
39.60000 108.000
39.64000 96.000
39.68000 93.000
39.72000 90.000
39.76000 92.000
39.80000 109.000
39.84000 93.000
39.88000 99.000
39.92000 84.000
39.96000 96.000
40.00000 100.000
40.04000 117.000
40.08000 105.000
40.12000 99.000
40.16000 87.000
40.20000 114.000
40.24000 89.000
40.28000 95.000
40.32000 99.000
40.36000 93.000
40.40000 119.000
40.44000 124.000
40.48000 109.000
40.52000 141.000
40.56000 110.000
40.60000 141.000
40.64000 129.000
40.68000 141.000
40.72000 152.000
40.76000 184.000
40.80000 218.000
40.84000 289.000
40.88000 367.000
40.92000 504.000
40.96000 698.000
41.00000 953.000
41.04000 1224.000
41.08000 1334.000
41.12000 1261.000
41.16000 1078.000
41.20000 927.000
41.24000 636.000
41.28000 496.000
41.32000 288.000
41.36000 233.000
41.40000 193.000
41.44000 147.000
41.48000 140.000
41.52000 141.000
41.56000 121.000
41.60000 118.000
41.64000 131.000
41.68000 114.000
41.72000 125.000
41.76000 124.000
41.80000 121.000
41.84000 121.000
41.88000 110.000
41.92000 110.000
41.96000 92.000
42.00000 94.000
42.04000 84.000
42.08000 122.000
42.12000 96.000
42.16000 120.000
42.20000 102.000
42.24000 90.000
42.28000 101.000
42.32000 100.000
42.36000 98.000
42.40000 106.000
42.44000 96.000
42.48000 98.000
42.52000 106.000
42.56000 95.000
42.60000 99.000
42.64000 96.000
42.68000 105.000
42.72000 103.000
42.76000 111.000
42.80000 116.000
42.84000 122.000
42.88000 132.000
42.92000 119.000
42.96000 100.000
43.00000 121.000
43.04000 110.000
43.08000 132.000
43.12000 128.000
43.16000 119.000
43.20000 114.000
43.24000 125.000
43.28000 136.000
43.32000 131.000
43.36000 147.000
43.40000 176.000
43.44000 196.000
43.48000 249.000
43.52000 363.000
43.56000 435.000
43.60000 611.000
43.64000 842.000
43.68000 1059.000
43.72000 1002.000
43.76000 884.000
43.80000 712.000
43.84000 567.000
43.88000 426.000
43.92000 285.000
43.96000 226.000
44.00000 174.000
44.04000 140.000
44.08000 130.000
44.12000 112.000
44.16000 111.000
44.20000 101.000
44.24000 99.000
44.28000 105.000
44.32000 90.000
44.36000 109.000
44.40000 118.000
44.44000 101.000
44.48000 88.000
44.52000 92.000
44.56000 109.000
44.60000 96.000
44.64000 76.000
44.68000 92.000
44.72000 85.000
44.76000 108.000
44.80000 92.000
44.84000 84.000
44.88000 82.000
44.92000 85.000
44.96000 98.000
45.00000 77.000
45.04000 99.000
45.08000 92.000
45.12000 68.000
45.16000 86.000
45.20000 66.000
45.24000 83.000
45.28000 93.000
45.32000 89.000
45.36000 80.000
45.40000 68.000
45.44000 93.000
45.48000 81.000
45.52000 79.000
45.56000 74.000
45.60000 75.000
45.64000 81.000
45.68000 83.000
45.72000 76.000
45.76000 82.000
45.80000 101.000
45.84000 74.000
45.88000 77.000
45.92000 97.000
45.96000 95.000
46.00000 100.000
46.04000 97.000
46.08000 124.000
46.12000 118.000
46.16000 126.000
46.20000 123.000
46.24000 130.000
46.28000 106.000
46.32000 114.000
46.36000 108.000
46.40000 78.000
46.44000 85.000
46.48000 88.000
46.52000 72.000
46.56000 66.000
46.60000 69.000
46.64000 79.000
46.68000 63.000
46.72000 72.000
46.76000 64.000
46.80000 61.000
46.84000 70.000
46.88000 100.000
46.92000 65.000
46.96000 77.000
47.00000 59.000
47.04000 87.000
47.08000 71.000
47.12000 75.000
47.16000 60.000
47.20000 72.000
47.24000 73.000
47.28000 76.000
47.32000 68.000
47.36000 67.000
47.40000 68.000
47.44000 85.000
47.48000 68.000
47.52000 56.000
47.56000 85.000
47.60000 80.000
47.64000 72.000
47.68000 78.000
47.72000 65.000
47.76000 77.000
47.80000 75.000
47.84000 67.000
47.88000 84.000
47.92000 57.000
47.96000 64.000
48.00000 67.000
48.04000 69.000
48.08000 70.000
48.12000 77.000
48.16000 64.000
48.20000 70.000
48.24000 69.000
48.28000 72.000
48.32000 63.000
48.36000 74.000
48.40000 62.000
48.44000 75.000
48.48000 78.000
48.52000 91.000
48.56000 87.000
48.60000 61.000
48.64000 79.000
48.68000 95.000
48.72000 80.000
48.76000 74.000
48.80000 80.000
48.84000 76.000
48.88000 69.000
48.92000 61.000
48.96000 58.000
49.00000 53.000
49.04000 81.000
49.08000 77.000
49.12000 70.000
49.16000 68.000
49.20000 57.000
49.24000 67.000
49.28000 68.000
49.32000 76.000
49.36000 52.000
49.40000 80.000
49.44000 70.000
49.48000 66.000
49.52000 78.000
49.56000 66.000
49.60000 63.000
49.64000 68.000
49.68000 63.000
49.72000 71.000
49.76000 67.000
49.80000 48.000
49.84000 81.000
49.88000 63.000
49.92000 76.000
49.96000 59.000
50.00000 75.000
50.04000 59.000
50.08000 66.000
50.12000 60.000
50.16000 63.000
50.20000 55.000
50.24000 76.000
50.28000 66.000
50.32000 67.000
50.36000 69.000
50.40000 61.000
50.44000 80.000
50.48000 74.000
50.52000 73.000
50.56000 84.000
50.60000 82.000
50.64000 101.000
50.68000 121.000
50.72000 137.000
50.76000 159.000
50.80000 222.000
50.84000 242.000
50.88000 274.000
50.92000 307.000
50.96000 289.000
51.00000 255.000
51.04000 206.000
51.08000 168.000
51.12000 164.000
51.16000 136.000
51.20000 94.000
51.24000 82.000
51.28000 78.000
51.32000 79.000
51.36000 76.000
51.40000 80.000
51.44000 60.000
51.48000 70.000
51.52000 69.000
51.56000 73.000
51.60000 68.000
51.64000 54.000
51.68000 65.000
51.72000 61.000
51.76000 60.000
51.80000 64.000
51.84000 68.000
51.88000 79.000
51.92000 63.000
51.96000 50.000
52.00000 77.000
52.04000 64.000
52.08000 76.000
52.12000 81.000
52.16000 70.000
52.20000 63.000
52.24000 63.000
52.28000 74.000
52.32000 65.000
52.36000 71.000
52.40000 58.000
52.44000 73.000
52.48000 67.000
52.52000 87.000
52.56000 59.000
52.60000 73.000
52.64000 60.000
52.68000 93.000
52.72000 66.000
52.76000 64.000
52.80000 70.000
52.84000 91.000
52.88000 68.000
52.92000 110.000
52.96000 116.000
53.00000 125.000
53.04000 156.000
53.08000 203.000
53.12000 236.000
53.16000 238.000
53.20000 234.000
53.24000 211.000
53.28000 155.000
53.32000 173.000
53.36000 131.000
53.40000 111.000
53.44000 89.000
53.48000 95.000
53.52000 86.000
53.56000 63.000
53.60000 85.000
53.64000 58.000
53.68000 75.000
53.72000 67.000
53.76000 72.000
53.80000 74.000
53.84000 65.000
53.88000 56.000
53.92000 59.000
53.96000 54.000
54.00000 54.000
54.04000 62.000
54.08000 84.000
54.12000 48.000
54.16000 58.000
54.20000 71.000
54.24000 64.000
54.28000 65.000
54.32000 63.000
54.36000 52.000
54.40000 60.000
54.44000 70.000
54.48000 56.000
54.52000 65.000
54.56000 56.000
54.60000 68.000
54.64000 65.000
54.68000 61.000
54.72000 55.000
54.76000 60.000
54.80000 63.000
54.84000 65.000
54.88000 68.000
54.92000 53.000
54.96000 39.000
55.00000 61.000
55.04000 71.000
55.08000 61.000
55.12000 76.000
55.16000 84.000
55.20000 102.000
55.24000 92.000
55.28000 108.000
55.32000 149.000
55.36000 138.000
55.40000 103.000
55.44000 133.000
55.48000 97.000
55.52000 82.000
55.56000 84.000
55.60000 81.000
55.64000 67.000
55.68000 64.000
55.72000 60.000
55.76000 57.000
55.80000 43.000
55.84000 70.000
55.88000 50.000
55.92000 48.000
55.96000 65.000
56.00000 69.000
56.04000 61.000
56.08000 58.000
56.12000 60.000
56.16000 69.000
56.20000 65.000
56.24000 63.000
56.28000 56.000
56.32000 51.000
56.36000 41.000
56.40000 48.000
56.44000 48.000
56.48000 55.000
56.52000 61.000
56.56000 62.000
56.60000 58.000
56.64000 79.000
56.68000 56.000
56.72000 56.000
56.76000 66.000
56.80000 53.000
56.84000 58.000
56.88000 55.000
56.92000 54.000
56.96000 51.000
57.00000 60.000
57.04000 52.000
57.08000 55.000
57.12000 58.000
57.16000 56.000
57.20000 70.000
57.24000 49.000
57.28000 55.000
57.32000 58.000
57.36000 57.000
57.40000 61.000
57.44000 53.000
57.48000 54.000
57.52000 51.000
57.56000 49.000
57.60000 56.000
57.64000 48.000
57.68000 53.000
57.72000 49.000
57.76000 63.000
57.80000 66.000
57.84000 62.000
57.88000 59.000
57.92000 46.000
57.96000 65.000
58.00000 57.000
58.04000 61.000
58.08000 45.000
58.12000 49.000
58.16000 53.000
58.20000 62.000
58.24000 58.000
58.28000 59.000
58.32000 51.000
58.36000 50.000
58.40000 52.000
58.44000 42.000
58.48000 52.000
58.52000 43.000
58.56000 55.000
58.60000 60.000
58.64000 67.000
58.68000 58.000
58.72000 56.000
58.76000 67.000
58.80000 58.000
58.84000 62.000
58.88000 51.000
58.92000 63.000
58.96000 60.000
59.00000 49.000
59.04000 64.000
59.08000 50.000
59.12000 74.000
59.16000 73.000
59.20000 66.000
59.24000 64.000
59.28000 72.000
59.32000 75.000
59.36000 80.000
59.40000 96.000
59.44000 119.000
59.48000 124.000
59.52000 104.000
59.56000 117.000
59.60000 130.000
59.64000 112.000
59.68000 89.000
59.72000 106.000
59.76000 86.000
59.80000 76.000
59.84000 76.000
59.88000 47.000
59.92000 66.000