File: XRD/50.xy
5.00000 1489.000
5.04000 1488.000
5.08000 1508.000
5.12000 1440.000
5.16000 1483.000
5.20000 1484.000
5.24000 1453.000
5.28000 1445.000
5.32000 1490.000
5.36000 1412.000
5.40000 1349.000
5.44000 1369.000
5.48000 1445.000
5.52000 1403.000
5.56000 1284.000
5.60000 1326.000
5.64000 1319.000
5.68000 1315.000
5.72000 1336.000
5.76000 1280.000
5.80000 1274.000
5.84000 1248.000
5.88000 1241.000
5.92000 1245.000
5.96000 1261.000
6.00000 1290.000
6.04000 1274.000
6.08000 1333.000
6.12000 1217.000
6.16000 1157.000
6.20000 1195.000
6.24000 1253.000
6.28000 1254.000
6.32000 1165.000
6.36000 1202.000
6.40000 1188.000
6.44000 1211.000
6.48000 1115.000
6.52000 1186.000
6.56000 1145.000
6.60000 1164.000
6.64000 1126.000
6.68000 1149.000
6.72000 1181.000
6.76000 1081.000
6.80000 1155.000
6.84000 1088.000
6.88000 1094.000
6.92000 1107.000
6.96000 1174.000
7.00000 1091.000
7.04000 1009.000
7.08000 1096.000
7.12000 1045.000
7.16000 1084.000
7.20000 1075.000
7.24000 1077.000
7.28000 1081.000
7.32000 1058.000
7.36000 1048.000
7.40000 1025.000
7.44000 1053.000
7.48000 1053.000
7.52000 1034.000
7.56000 1036.000
7.60000 1020.000
7.64000 1059.000
7.68000 1084.000
7.72000 1028.000
7.76000 975.000
7.80000 991.000
7.84000 1031.000
7.88000 1006.000
7.92000 1011.000
7.96000 1032.000
8.00000 1010.000
8.04000 1026.000
8.08000 1105.000
8.12000 1019.000
8.16000 1022.000
8.20000 1082.000
8.24000 1050.000
8.28000 1062.000
8.32000 1052.000
8.36000 1051.000
8.40000 1051.000
8.44000 1053.000
8.48000 1054.000
8.52000 1022.000
8.56000 964.000
8.60000 905.000
8.64000 943.000
8.68000 978.000
8.72000 952.000
8.76000 933.000
8.80000 895.000
8.84000 899.000
8.88000 924.000
8.92000 893.000
8.96000 898.000
9.00000 853.000
9.04000 818.000
9.08000 910.000
9.12000 854.000
9.16000 823.000
9.20000 896.000
9.24000 878.000
9.28000 879.000
9.32000 861.000
9.36000 848.000
9.40000 871.000
9.44000 878.000
9.48000 801.000
9.52000 839.000
9.56000 841.000
9.60000 884.000
9.64000 879.000
9.68000 791.000
9.72000 853.000
9.76000 787.000
9.80000 821.000
9.84000 788.000
9.88000 802.000
9.92000 823.000
9.96000 839.000
10.00000 804.000
10.04000 805.000
10.08000 843.000
10.12000 794.000
10.16000 822.000
10.20000 818.000
10.24000 838.000
10.28000 786.000
10.32000 786.000
10.36000 800.000
10.40000 819.000
10.44000 820.000
10.48000 807.000
10.52000 754.000
10.56000 808.000
10.60000 809.000
10.64000 749.000
10.68000 777.000
10.72000 810.000
10.76000 822.000
10.80000 713.000
10.84000 803.000
10.88000 803.000
10.92000 804.000
10.96000 808.000
11.00000 811.000
11.04000 786.000
11.08000 759.000
11.12000 790.000
11.16000 765.000
11.20000 739.000
11.24000 762.000
11.28000 796.000
11.32000 747.000
11.36000 688.000
11.40000 760.000
11.44000 748.000
11.48000 780.000
11.52000 753.000
11.56000 769.000
11.60000 760.000
11.64000 756.000
11.68000 807.000
11.72000 792.000
11.76000 745.000
11.80000 796.000
11.84000 846.000
11.88000 804.000
11.92000 812.000
11.96000 806.000
12.00000 858.000
12.04000 862.000
12.08000 913.000
12.12000 923.000
12.16000 897.000
12.20000 884.000
12.24000 919.000
12.28000 899.000
12.32000 930.000
12.36000 895.000
12.40000 839.000
12.44000 855.000
12.48000 859.000
12.52000 917.000
12.56000 879.000
12.60000 919.000
12.64000 953.000
12.68000 977.000
12.72000 1023.000
12.76000 1056.000
12.80000 1088.000
12.84000 1124.000
12.88000 1155.000
12.92000 1090.000
12.96000 1063.000
13.00000 972.000
13.04000 916.000
13.08000 908.000
13.12000 834.000
13.16000 793.000
13.20000 765.000
13.24000 768.000
13.28000 714.000
13.32000 730.000
13.36000 760.000
13.40000 723.000
13.44000 756.000
13.48000 750.000
13.52000 742.000
13.56000 725.000
13.60000 729.000
13.64000 708.000
13.68000 671.000
13.72000 701.000
13.76000 735.000
13.80000 664.000
13.84000 716.000
13.88000 667.000
13.92000 706.000
13.96000 685.000
14.00000 697.000
14.04000 739.000
14.08000 676.000
14.12000 709.000
14.16000 738.000
14.20000 659.000
14.24000 729.000
14.28000 745.000
14.32000 750.000
14.36000 735.000
14.40000 736.000
14.44000 749.000
14.48000 696.000
14.52000 759.000
14.56000 734.000
14.60000 758.000
14.64000 746.000
14.68000 750.000
14.72000 766.000
14.76000 769.000
14.80000 706.000
14.84000 717.000
14.88000 749.000
14.92000 783.000
14.96000 749.000
15.00000 772.000
15.04000 693.000
15.08000 743.000
15.12000 729.000
15.16000 747.000
15.20000 726.000
15.24000 752.000
15.28000 712.000
15.32000 707.000
15.36000 733.000
15.40000 766.000
15.44000 758.000
15.48000 693.000
15.52000 753.000
15.56000 749.000
15.60000 746.000
15.64000 737.000
15.68000 763.000
15.72000 764.000
15.76000 761.000
15.80000 740.000
15.84000 735.000
15.88000 753.000
15.92000 707.000
15.96000 744.000
16.00000 730.000
16.04000 788.000
16.08000 698.000
16.12000 701.000
16.16000 788.000
16.20000 755.000
16.24000 769.000
16.28000 785.000
16.32000 774.000
16.36000 763.000
16.40000 753.000
16.44000 787.000
16.48000 860.000
16.52000 865.000
16.56000 771.000
16.60000 854.000
16.64000 825.000
16.68000 828.000
16.72000 893.000
16.76000 829.000
16.80000 840.000
16.84000 843.000
16.88000 864.000
16.92000 839.000
16.96000 820.000
17.00000 809.000
17.04000 786.000
17.08000 833.000
17.12000 865.000
17.16000 808.000
17.20000 846.000
17.24000 829.000
17.28000 830.000
17.32000 854.000
17.36000 811.000
17.40000 886.000
17.44000 842.000
17.48000 840.000
17.52000 837.000
17.56000 832.000
17.60000 931.000
17.64000 842.000
17.68000 849.000
17.72000 867.000
17.76000 873.000
17.80000 852.000
17.84000 848.000
17.88000 891.000
17.92000 851.000
17.96000 890.000
18.00000 852.000
18.04000 869.000
18.08000 859.000
18.12000 831.000
18.16000 869.000
18.20000 908.000
18.24000 881.000
18.28000 904.000
18.32000 822.000
18.36000 875.000
18.40000 925.000
18.44000 854.000
18.48000 850.000
18.52000 942.000
18.56000 921.000
18.60000 900.000
18.64000 916.000
18.68000 922.000
18.72000 912.000
18.76000 941.000
18.80000 956.000
18.84000 942.000
18.88000 900.000
18.92000 969.000
18.96000 913.000
19.00000 974.000
19.04000 953.000
19.08000 960.000
19.12000 1002.000
19.16000 962.000
19.20000 960.000
19.24000 893.000
19.28000 989.000
19.32000 951.000
19.36000 985.000
19.40000 1017.000
19.44000 937.000
19.48000 1011.000
19.52000 957.000
19.56000 942.000
19.60000 1014.000
19.64000 1025.000
19.68000 986.000
19.72000 998.000
19.76000 1029.000
19.80000 1006.000
19.84000 972.000
19.88000 1013.000
19.92000 1026.000
19.96000 996.000
20.00000 1067.000
20.04000 1008.000
20.08000 1027.000
20.12000 1047.000
20.16000 1006.000
20.20000 1068.000
20.24000 1042.000
20.28000 1060.000
20.32000 1061.000
20.36000 1079.000
20.40000 1113.000
20.44000 1059.000
20.48000 1033.000
20.52000 1114.000
20.56000 1058.000
20.60000 1085.000
20.64000 1145.000
20.68000 1057.000
20.72000 1171.000
20.76000 1159.000
20.80000 1147.000
20.84000 1148.000
20.88000 1206.000
20.92000 1155.000
20.96000 1178.000
21.00000 1254.000
21.04000 1174.000
21.08000 1271.000
21.12000 1289.000
21.16000 1317.000
21.20000 1238.000
21.24000 1226.000
21.28000 1225.000
21.32000 1237.000
21.36000 1108.000
21.40000 1164.000
21.44000 1229.000
21.48000 1243.000
21.52000 1170.000
21.56000 1145.000
21.60000 1152.000
21.64000 1140.000
21.68000 1169.000
21.72000 1144.000
21.76000 1204.000
21.80000 1138.000
21.84000 1187.000
21.88000 1161.000
21.92000 1151.000
21.96000 1215.000
22.00000 1235.000
22.04000 1221.000
22.08000 1212.000
22.12000 1198.000
22.16000 1247.000
22.20000 1216.000
22.24000 1218.000
22.28000 1171.000
22.32000 1205.000
22.36000 1232.000
22.40000 1168.000
22.44000 1238.000
22.48000 1210.000
22.52000 1253.000
22.56000 1256.000
22.60000 1240.000
22.64000 1257.000
22.68000 1219.000
22.72000 1208.000
22.76000 1213.000
22.80000 1196.000
22.84000 1256.000
22.88000 1267.000
22.92000 1249.000
22.96000 1248.000
23.00000 1248.000
23.04000 1237.000
23.08000 1221.000
23.12000 1330.000
23.16000 1255.000
23.20000 1296.000
23.24000 1207.000
23.28000 1210.000
23.32000 1272.000
23.36000 1261.000
23.40000 1224.000
23.44000 1280.000
23.48000 1222.000
23.52000 1257.000
23.56000 1308.000
23.60000 1208.000
23.64000 1235.000
23.68000 1312.000
23.72000 1293.000
23.76000 1254.000
23.80000 1307.000
23.84000 1273.000
23.88000 1270.000
23.92000 1290.000
23.96000 1295.000
24.00000 1320.000
24.04000 1338.000
24.08000 1288.000
24.12000 1383.000
24.16000 1365.000
24.20000 1374.000
24.24000 1451.000
24.28000 1455.000
24.32000 1392.000
24.36000 1500.000
24.40000 1469.000
24.44000 1502.000
24.48000 1497.000
24.52000 1442.000
24.56000 1390.000
24.60000 1437.000
24.64000 1433.000
24.68000 1423.000
24.72000 1466.000
24.76000 1417.000
24.80000 1430.000
24.84000 1497.000
24.88000 1465.000
24.92000 1519.000
24.96000 1516.000
25.00000 1563.000
25.04000 1580.000
25.08000 1654.000
25.12000 1732.000
25.16000 1812.000
25.20000 1869.000
25.24000 1912.000
25.28000 1952.000
25.32000 2006.000
25.36000 2091.000
25.40000 2074.000
25.44000 2065.000
25.48000 2046.000
25.52000 2012.000
25.56000 1974.000
25.60000 1828.000
25.64000 1882.000
25.68000 1765.000
25.72000 1720.000
25.76000 1804.000
25.80000 1863.000
25.84000 1859.000
25.88000 1871.000
25.92000 1912.000
25.96000 1916.000
26.00000 1971.000
26.04000 1843.000
26.08000 1766.000
26.12000 1636.000
26.16000 1536.000
26.20000 1492.000
26.24000 1397.000
26.28000 1391.000
26.32000 1326.000
26.36000 1304.000
26.40000 1252.000
26.44000 1256.000
26.48000 1363.000
26.52000 1223.000
26.56000 1261.000
26.60000 1178.000
26.64000 1220.000
26.68000 1234.000
26.72000 1283.000
26.76000 1297.000
26.80000 1254.000
26.84000 1290.000
26.88000 1213.000
26.92000 1236.000
26.96000 1263.000
27.00000 1304.000
27.04000 1351.000
27.08000 1317.000
27.12000 1353.000
27.16000 1339.000
27.20000 1360.000
27.24000 1328.000
27.28000 1419.000
27.32000 1406.000
27.36000 1445.000
27.40000 1503.000
27.44000 1552.000
27.48000 1615.000
27.52000 1612.000
27.56000 1735.000
27.60000 1813.000
27.64000 1830.000
27.68000 1765.000
27.72000 1809.000
27.76000 1700.000
27.80000 1676.000
27.84000 1560.000
27.88000 1454.000
27.92000 1385.000
27.96000 1354.000
28.00000 1352.000
28.04000 1292.000
28.08000 1319.000
28.12000 1261.000
28.16000 1200.000
28.20000 1227.000
28.24000 1171.000
28.28000 1282.000
28.32000 1216.000
28.36000 1189.000
28.40000 1250.000
28.44000 1184.000
28.48000 1175.000
28.52000 1167.000
28.56000 1124.000
28.60000 1270.000
28.64000 1154.000
28.68000 1151.000
28.72000 1120.000
28.76000 1165.000
28.80000 1155.000
28.84000 1129.000
28.88000 1131.000
28.92000 1107.000
28.96000 1136.000
29.00000 1131.000
29.04000 1136.000
29.08000 1163.000
29.12000 1123.000
29.16000 1129.000
29.20000 1107.000
29.24000 1143.000
29.28000 1158.000
29.32000 1108.000
29.36000 1148.000
29.40000 1166.000
29.44000 1216.000
29.48000 1158.000
29.52000 1201.000
29.56000 1278.000
29.60000 1294.000
29.64000 1359.000
29.68000 1321.000
29.72000 1452.000
29.76000 1540.000
29.80000 1573.000
29.84000 1535.000
29.88000 1570.000
29.92000 1607.000
29.96000 1649.000
30.00000 1644.000
30.04000 1519.000
30.08000 1419.000
30.12000 1364.000
30.16000 1256.000
30.20000 1179.000
30.24000 1247.000
30.28000 1184.000
30.32000 1129.000
30.36000 1130.000
30.40000 1112.000
30.44000 1122.000
30.48000 1163.000
30.52000 1112.000
30.56000 1057.000
30.60000 1052.000
30.64000 1026.000
30.68000 1060.000
30.72000 1030.000
30.76000 1055.000
30.80000 1013.000
30.84000 1035.000
30.88000 1058.000
30.92000 1059.000
30.96000 1032.000
31.00000 1021.000
31.04000 1043.000
31.08000 1066.000
31.12000 1022.000
31.16000 990.000
31.20000 1017.000
31.24000 950.000
31.28000 1029.000
31.32000 959.000
31.36000 1050.000
31.40000 987.000
31.44000 946.000
31.48000 1049.000
31.52000 976.000
31.56000 984.000
31.60000 978.000
31.64000 981.000
31.68000 954.000
31.72000 989.000
31.76000 992.000
31.80000 1067.000
31.84000 1003.000
31.88000 1009.000
31.92000 980.000
31.96000 1061.000
32.00000 1032.000
32.04000 1016.000
32.08000 1053.000
32.12000 1037.000
32.16000 994.000
32.20000 1034.000
32.24000 1075.000
32.28000 1113.000
32.32000 1138.000
32.36000 1123.000
32.40000 1194.000
32.44000 1218.000
32.48000 1169.000
32.52000 1275.000
32.56000 1264.000
32.60000 1327.000
32.64000 1291.000
32.68000 1199.000
32.72000 1191.000
32.76000 1187.000
32.80000 1192.000
32.84000 1109.000
32.88000 1090.000
32.92000 1041.000
32.96000 1072.000
33.00000 1079.000
33.04000 1040.000
33.08000 1003.000
33.12000 1021.000
33.16000 1010.000
33.20000 969.000
33.24000 943.000
33.28000 933.000
33.32000 882.000
33.36000 903.000
33.40000 943.000
33.44000 943.000
33.48000 948.000
33.52000 888.000
33.56000 947.000
33.60000 886.000
33.64000 872.000
33.68000 860.000
33.72000 873.000
33.76000 852.000
33.80000 892.000
33.84000 864.000
33.88000 814.000
33.92000 854.000
33.96000 823.000
34.00000 853.000
34.04000 843.000
34.08000 802.000
34.12000 819.000
34.16000 790.000
34.20000 758.000
34.24000 797.000
34.28000 794.000
34.32000 812.000
34.36000 840.000
34.40000 824.000
34.44000 808.000
34.48000 838.000
34.52000 794.000
34.56000 842.000
34.60000 769.000
34.64000 786.000
34.68000 824.000
34.72000 783.000
34.76000 763.000
34.80000 798.000
34.84000 800.000
34.88000 817.000
34.92000 839.000
34.96000 767.000
35.00000 775.000
35.04000 735.000
35.08000 743.000
35.12000 732.000
35.16000 738.000
35.20000 766.000
35.24000 732.000
35.28000 783.000
35.32000 719.000
35.36000 748.000
35.40000 797.000
35.44000 712.000
35.48000 763.000
35.52000 702.000
35.56000 748.000
35.60000 721.000
35.64000 767.000
35.68000 746.000
35.72000 700.000
35.76000 765.000
35.80000 727.000
35.84000 758.000
35.88000 772.000
35.92000 709.000
35.96000 717.000
36.00000 723.000
36.04000 718.000
36.08000 703.000
36.12000 709.000
36.16000 644.000
36.20000 689.000
36.24000 733.000
36.28000 651.000
36.32000 647.000
36.36000 733.000
36.40000 710.000
36.44000 700.000
36.48000 694.000
36.52000 697.000
36.56000 676.000
36.60000 659.000
36.64000 642.000
36.68000 678.000
36.72000 647.000
36.76000 707.000
36.80000 710.000
36.84000 738.000
36.88000 710.000
36.92000 677.000
36.96000 679.000
37.00000 690.000
37.04000 693.000
37.08000 753.000
37.12000 650.000
37.16000 645.000
37.20000 682.000
37.24000 654.000
37.28000 657.000
37.32000 637.000
37.36000 697.000
37.40000 651.000
37.44000 635.000
37.48000 649.000
37.52000 614.000
37.56000 634.000
37.60000 640.000
37.64000 632.000
37.68000 628.000
37.72000 599.000
37.76000 626.000
37.80000 640.000
37.84000 604.000
37.88000 614.000
37.92000 612.000
37.96000 668.000
38.00000 621.000
38.04000 597.000
38.08000 647.000
38.12000 623.000
38.16000 629.000
38.20000 643.000
38.24000 620.000
38.28000 598.000
38.32000 656.000
38.36000 604.000
38.40000 599.000
38.44000 669.000
38.48000 649.000
38.52000 644.000
38.56000 702.000
38.60000 605.000
38.64000 664.000
38.68000 669.000
38.72000 619.000
38.76000 692.000
38.80000 709.000
38.84000 647.000
38.88000 662.000
38.92000 711.000
38.96000 709.000
39.00000 716.000
39.04000 654.000
39.08000 672.000
39.12000 673.000
39.16000 672.000
39.20000 669.000
39.24000 664.000
39.28000 659.000
39.32000 654.000
39.36000 671.000
39.40000 606.000
39.44000 639.000
39.48000 613.000
39.52000 662.000
39.56000 609.000
39.60000 602.000
39.64000 609.000
39.68000 613.000
39.72000 596.000
39.76000 559.000
39.80000 616.000
39.84000 574.000
39.88000 595.000
39.92000 581.000
39.96000 590.000
40.00000 579.000
40.04000 640.000
40.08000 581.000
40.12000 570.000
40.16000 587.000
40.20000 621.000
40.24000 551.000
40.28000 573.000
40.32000 558.000
40.36000 593.000
40.40000 575.000
40.44000 602.000
40.48000 651.000
40.52000 578.000
40.56000 555.000
40.60000 614.000
40.64000 564.000
40.68000 631.000
40.72000 594.000
40.76000 613.000
40.80000 616.000
40.84000 592.000
40.88000 610.000
40.92000 576.000
40.96000 581.000
41.00000 612.000
41.04000 616.000
41.08000 622.000
41.12000 634.000
41.16000 589.000
41.20000 605.000
41.24000 608.000
41.28000 612.000
41.32000 600.000
41.36000 560.000
41.40000 610.000
41.44000 561.000
41.48000 569.000
41.52000 629.000
41.56000 605.000
41.60000 609.000
41.64000 615.000
41.68000 623.000
41.72000 637.000
41.76000 616.000
41.80000 634.000
41.84000 597.000
41.88000 664.000
41.92000 653.000
41.96000 612.000
42.00000 604.000
42.04000 646.000
42.08000 626.000
42.12000 617.000
42.16000 672.000
42.20000 632.000
42.24000 694.000
42.28000 736.000
42.32000 673.000
42.36000 683.000
42.40000 755.000
42.44000 749.000
42.48000 707.000
42.52000 721.000
42.56000 757.000
42.60000 721.000
42.64000 711.000
42.68000 670.000
42.72000 725.000
42.76000 723.000
42.80000 690.000
42.84000 672.000
42.88000 732.000
42.92000 713.000
42.96000 725.000
43.00000 760.000
43.04000 745.000
43.08000 822.000
43.12000 809.000
43.16000 818.000
43.20000 874.000
43.24000 851.000
43.28000 791.000
43.32000 777.000
43.36000 722.000
43.40000 712.000
43.44000 702.000
43.48000 678.000
43.52000 638.000
43.56000 642.000
43.60000 615.000
43.64000 645.000
43.68000 598.000
43.72000 622.000
43.76000 624.000
43.80000 599.000
43.84000 633.000
43.88000 626.000
43.92000 639.000
43.96000 620.000
44.00000 590.000
44.04000 627.000
44.08000 671.000
44.12000 633.000
44.16000 610.000
44.20000 639.000
44.24000 629.000
44.28000 645.000
44.32000 694.000
44.36000 684.000
44.40000 665.000
44.44000 652.000
44.48000 668.000
44.52000 684.000
44.56000 679.000
44.60000 677.000
44.64000 650.000
44.68000 643.000
44.72000 620.000
44.76000 593.000
44.80000 642.000
44.84000 619.000
44.88000 590.000
44.92000 649.000
44.96000 640.000
45.00000 596.000
45.04000 631.000
45.08000 574.000
45.12000 575.000
45.16000 623.000
45.20000 608.000
45.24000 626.000
45.28000 577.000
45.32000 609.000
45.36000 571.000
45.40000 539.000
45.44000 617.000
45.48000 621.000
45.52000 615.000
45.56000 593.000
45.60000 542.000
45.64000 548.000
45.68000 609.000
45.72000 646.000
45.76000 649.000
45.80000 635.000
45.84000 615.000
45.88000 627.000
45.92000 645.000
45.96000 625.000
46.00000 632.000
46.04000 631.000
46.08000 709.000
46.12000 673.000
46.16000 688.000
46.20000 691.000
46.24000 678.000
46.28000 671.000
46.32000 674.000
46.36000 685.000
46.40000 626.000
46.44000 639.000
46.48000 636.000
46.52000 630.000
46.56000 584.000
46.60000 572.000
46.64000 618.000
46.68000 562.000
46.72000 598.000
46.76000 600.000
46.80000 601.000
46.84000 551.000
46.88000 586.000
46.92000 532.000
46.96000 564.000
47.00000 583.000
47.04000 545.000
47.08000 583.000
47.12000 611.000
47.16000 515.000
47.20000 554.000
47.24000 526.000
47.28000 537.000
47.32000 592.000
47.36000 539.000
47.40000 555.000
47.44000 577.000
47.48000 546.000
47.52000 535.000
47.56000 548.000
47.60000 566.000
47.64000 514.000
47.68000 528.000
47.72000 541.000
47.76000 513.000
47.80000 542.000
47.84000 518.000
47.88000 504.000
47.92000 540.000
47.96000 539.000
48.00000 559.000
48.04000 528.000
48.08000 514.000
48.12000 518.000
48.16000 557.000
48.20000 563.000
48.24000 513.000
48.28000 549.000
48.32000 544.000
48.36000 542.000
48.40000 491.000
48.44000 559.000
48.48000 551.000
48.52000 551.000
48.56000 565.000
48.60000 519.000
48.64000 545.000
48.68000 486.000
48.72000 536.000
48.76000 498.000
48.80000 599.000
48.84000 534.000
48.88000 566.000
48.92000 519.000
48.96000 501.000
49.00000 529.000
49.04000 525.000
49.08000 511.000
49.12000 530.000
49.16000 546.000
49.20000 551.000
49.24000 539.000
49.28000 570.000
49.32000 568.000
49.36000 521.000
49.40000 523.000
49.44000 567.000
49.48000 556.000
49.52000 548.000
49.56000 526.000
49.60000 522.000
49.64000 549.000
49.68000 509.000
49.72000 475.000
49.76000 560.000
49.80000 567.000
49.84000 555.000
49.88000 503.000
49.92000 561.000
49.96000 563.000
50.00000 544.000
50.04000 567.000
50.08000 546.000
50.12000 557.000
50.16000 560.000
50.20000 548.000
50.24000 552.000
50.28000 550.000
50.32000 592.000
50.36000 576.000
50.40000 550.000
50.44000 594.000
50.48000 559.000
50.52000 576.000
50.56000 551.000
50.60000 639.000
50.64000 596.000
50.68000 654.000
50.72000 620.000
50.76000 626.000
50.80000 630.000
50.84000 623.000
50.88000 570.000
50.92000 578.000
50.96000 587.000
51.00000 570.000
51.04000 567.000
51.08000 574.000
51.12000 573.000
51.16000 559.000
51.20000 554.000
51.24000 540.000
51.28000 541.000
51.32000 574.000
51.36000 505.000
51.40000 538.000
51.44000 502.000
51.48000 517.000
51.52000 509.000
51.56000 521.000
51.60000 531.000
51.64000 563.000
51.68000 502.000
51.72000 527.000
51.76000 572.000
51.80000 520.000
51.84000 567.000
51.88000 559.000
51.92000 622.000
51.96000 565.000
52.00000 577.000
52.04000 579.000
52.08000 609.000
52.12000 569.000
52.16000 637.000
52.20000 592.000
52.24000 586.000
52.28000 599.000
52.32000 592.000
52.36000 525.000
52.40000 585.000
52.44000 563.000
52.48000 601.000
52.52000 541.000
52.56000 546.000
52.60000 568.000
52.64000 517.000
52.68000 560.000
52.72000 538.000
52.76000 538.000
52.80000 504.000
52.84000 487.000
52.88000 526.000
52.92000 517.000
52.96000 491.000
53.00000 527.000
53.04000 502.000
53.08000 542.000
53.12000 584.000
53.16000 516.000
53.20000 514.000
53.24000 526.000
53.28000 535.000
53.32000 523.000
53.36000 558.000
53.40000 550.000
53.44000 564.000
53.48000 561.000
53.52000 554.000
53.56000 499.000
53.60000 527.000
53.64000 513.000
53.68000 516.000
53.72000 525.000
53.76000 495.000
53.80000 543.000
53.84000 559.000
53.88000 507.000
53.92000 544.000
53.96000 505.000
54.00000 535.000
54.04000 487.000
54.08000 507.000
54.12000 581.000
54.16000 500.000
54.20000 564.000
54.24000 524.000
54.28000 537.000
54.32000 520.000
54.36000 526.000
54.40000 500.000
54.44000 512.000
54.48000 502.000
54.52000 537.000
54.56000 517.000
54.60000 511.000
54.64000 531.000
54.68000 531.000
54.72000 525.000
54.76000 505.000
54.80000 524.000
54.84000 506.000
54.88000 545.000
54.92000 500.000
54.96000 489.000
55.00000 515.000
55.04000 584.000
55.08000 523.000
55.12000 513.000
55.16000 541.000
55.20000 501.000
55.24000 545.000
55.28000 523.000
55.32000 523.000
55.36000 516.000
55.40000 573.000
55.44000 535.000
55.48000 496.000
55.52000 475.000
55.56000 501.000
55.60000 557.000
55.64000 588.000
55.68000 499.000
55.72000 520.000
55.76000 498.000
55.80000 469.000
55.84000 516.000
55.88000 517.000
55.92000 533.000
55.96000 515.000
56.00000 514.000
56.04000 512.000
56.08000 493.000
56.12000 498.000
56.16000 504.000
56.20000 553.000
56.24000 468.000
56.28000 509.000
56.32000 514.000
56.36000 490.000
56.40000 492.000
56.44000 504.000
56.48000 472.000
56.52000 504.000
56.56000 522.000
56.60000 451.000
56.64000 499.000
56.68000 516.000
56.72000 520.000
56.76000 546.000
56.80000 552.000
56.84000 504.000
56.88000 499.000
56.92000 512.000
56.96000 490.000
57.00000 532.000
57.04000 522.000
57.08000 526.000
57.12000 505.000
57.16000 506.000
57.20000 497.000
57.24000 472.000
57.28000 493.000
57.32000 487.000
57.36000 531.000
57.40000 497.000
57.44000 483.000
57.48000 530.000
57.52000 525.000
57.56000 523.000
57.60000 506.000
57.64000 521.000
57.68000 512.000
57.72000 507.000
57.76000 490.000
57.80000 517.000
57.84000 499.000
57.88000 497.000
57.92000 461.000
57.96000 465.000
58.00000 507.000
58.04000 500.000
58.08000 522.000
58.12000 509.000
58.16000 498.000
58.20000 497.000
58.24000 518.000
58.28000 523.000
58.32000 503.000
58.36000 535.000
58.40000 531.000
58.44000 489.000
58.48000 558.000
58.52000 538.000
58.56000 481.000
58.60000 517.000
58.64000 561.000
58.68000 481.000
58.72000 532.000
58.76000 528.000
58.80000 515.000
58.84000 482.000
58.88000 554.000
58.92000 495.000
58.96000 489.000
59.00000 491.000
59.04000 460.000
59.08000 521.000
59.12000 525.000
59.16000 473.000
59.20000 505.000
59.24000 504.000
59.28000 522.000
59.32000 532.000
59.36000 487.000
59.40000 514.000
59.44000 556.000
59.48000 506.000
59.52000 537.000
59.56000 496.000
59.60000 531.000
59.64000 560.000
59.68000 557.000
59.72000 495.000
59.76000 498.000
59.80000 523.000
59.84000 527.000
59.88000 496.000
59.92000 485.000