File: XRD/51.xy
5.00000 1466.000
5.04000 1390.000
5.08000 1412.000
5.12000 1357.000
5.16000 1369.000
5.20000 1337.000
5.24000 1364.000
5.28000 1268.000
5.32000 1316.000
5.36000 1339.000
5.40000 1316.000
5.44000 1317.000
5.48000 1274.000
5.52000 1234.000
5.56000 1267.000
5.60000 1314.000
5.64000 1239.000
5.68000 1330.000
5.72000 1244.000
5.76000 1265.000
5.80000 1237.000
5.84000 1246.000
5.88000 1203.000
5.92000 1180.000
5.96000 1118.000
6.00000 1131.000
6.04000 1114.000
6.08000 1168.000
6.12000 1229.000
6.16000 1199.000
6.20000 1119.000
6.24000 1108.000
6.28000 1128.000
6.32000 1142.000
6.36000 1124.000
6.40000 1063.000
6.44000 1125.000
6.48000 1078.000
6.52000 1053.000
6.56000 1141.000
6.60000 1013.000
6.64000 1077.000
6.68000 1043.000
6.72000 1095.000
6.76000 1065.000
6.80000 1111.000
6.84000 1088.000
6.88000 1124.000
6.92000 1014.000
6.96000 1051.000
7.00000 1051.000
7.04000 1018.000
7.08000 1002.000
7.12000 982.000
7.16000 999.000
7.20000 985.000
7.24000 974.000
7.28000 994.000
7.32000 948.000
7.36000 1008.000
7.40000 1056.000
7.44000 946.000
7.48000 975.000
7.52000 992.000
7.56000 1023.000
7.60000 1010.000
7.64000 973.000
7.68000 1008.000
7.72000 895.000
7.76000 960.000
7.80000 961.000
7.84000 954.000
7.88000 928.000
7.92000 890.000
7.96000 918.000
8.00000 977.000
8.04000 942.000
8.08000 932.000
8.12000 971.000
8.16000 1027.000
8.20000 976.000
8.24000 1009.000
8.28000 1014.000
8.32000 1026.000
8.36000 1007.000
8.40000 977.000
8.44000 990.000
8.48000 957.000
8.52000 934.000
8.56000 928.000
8.60000 923.000
8.64000 868.000
8.68000 888.000
8.72000 869.000
8.76000 868.000
8.80000 861.000
8.84000 831.000
8.88000 826.000
8.92000 820.000
8.96000 843.000
9.00000 839.000
9.04000 784.000
9.08000 837.000
9.12000 774.000
9.16000 817.000
9.20000 849.000
9.24000 808.000
9.28000 828.000
9.32000 766.000
9.36000 779.000
9.40000 749.000
9.44000 794.000
9.48000 785.000
9.52000 790.000
9.56000 798.000
9.60000 738.000
9.64000 809.000
9.68000 764.000
9.72000 740.000
9.76000 772.000
9.80000 757.000
9.84000 757.000
9.88000 778.000
9.92000 772.000
9.96000 744.000
10.00000 766.000
10.04000 714.000
10.08000 737.000
10.12000 766.000
10.16000 751.000
10.20000 733.000
10.24000 761.000
10.28000 691.000
10.32000 757.000
10.36000 737.000
10.40000 699.000
10.44000 675.000
10.48000 695.000
10.52000 755.000
10.56000 698.000
10.60000 687.000
10.64000 705.000
10.68000 699.000
10.72000 747.000
10.76000 698.000
10.80000 685.000
10.84000 722.000
10.88000 677.000
10.92000 677.000
10.96000 716.000
11.00000 679.000
11.04000 679.000
11.08000 707.000
11.12000 703.000
11.16000 673.000
11.20000 726.000
11.24000 664.000
11.28000 677.000
11.32000 688.000
11.36000 708.000
11.40000 686.000
11.44000 662.000
11.48000 710.000
11.52000 702.000
11.56000 695.000
11.60000 663.000
11.64000 761.000
11.68000 720.000
11.72000 753.000
11.76000 678.000
11.80000 751.000
11.84000 728.000
11.88000 755.000
11.92000 757.000
11.96000 804.000
12.00000 784.000
12.04000 830.000
12.08000 780.000
12.12000 841.000
12.16000 840.000
12.20000 889.000
12.24000 845.000
12.28000 854.000
12.32000 779.000
12.36000 813.000
12.40000 777.000
12.44000 789.000
12.48000 841.000
12.52000 803.000
12.56000 817.000
12.60000 801.000
12.64000 894.000
12.68000 892.000
12.72000 930.000
12.76000 1044.000
12.80000 1057.000
12.84000 1005.000
12.88000 1040.000
12.92000 1076.000
12.96000 1028.000
13.00000 902.000
13.04000 866.000
13.08000 807.000
13.12000 757.000
13.16000 733.000
13.20000 697.000
13.24000 684.000
13.28000 673.000
13.32000 686.000
13.36000 679.000
13.40000 685.000
13.44000 667.000
13.48000 666.000
13.52000 617.000
13.56000 693.000
13.60000 673.000
13.64000 660.000
13.68000 607.000
13.72000 633.000
13.76000 680.000
13.80000 658.000
13.84000 616.000
13.88000 637.000
13.92000 671.000
13.96000 660.000
14.00000 638.000
14.04000 618.000
14.08000 612.000
14.12000 572.000
14.16000 629.000
14.20000 726.000
14.24000 623.000
14.28000 674.000
14.32000 593.000
14.36000 642.000
14.40000 633.000
14.44000 663.000
14.48000 640.000
14.52000 620.000
14.56000 648.000
14.60000 671.000
14.64000 657.000
14.68000 633.000
14.72000 640.000
14.76000 663.000
14.80000 661.000
14.84000 709.000
14.88000 676.000
14.92000 707.000
14.96000 687.000
15.00000 652.000
15.04000 673.000
15.08000 691.000
15.12000 612.000
15.16000 662.000
15.20000 626.000
15.24000 660.000
15.28000 669.000
15.32000 633.000
15.36000 656.000
15.40000 658.000
15.44000 665.000
15.48000 684.000
15.52000 648.000
15.56000 686.000
15.60000 649.000
15.64000 646.000
15.68000 712.000
15.72000 654.000
15.76000 683.000
15.80000 687.000
15.84000 654.000
15.88000 677.000
15.92000 637.000
15.96000 702.000
16.00000 618.000
16.04000 665.000
16.08000 699.000
16.12000 742.000
16.16000 651.000
16.20000 736.000
16.24000 700.000
16.28000 689.000
16.32000 700.000
16.36000 685.000
16.40000 721.000
16.44000 706.000
16.48000 698.000
16.52000 733.000
16.56000 692.000
16.60000 780.000
16.64000 719.000
16.68000 756.000
16.72000 749.000
16.76000 754.000
16.80000 805.000
16.84000 748.000
16.88000 750.000
16.92000 735.000
16.96000 736.000
17.00000 775.000
17.04000 789.000
17.08000 738.000
17.12000 750.000
17.16000 806.000
17.20000 746.000
17.24000 747.000
17.28000 701.000
17.32000 720.000
17.36000 724.000
17.40000 766.000
17.44000 779.000
17.48000 749.000
17.52000 778.000
17.56000 839.000
17.60000 755.000
17.64000 759.000
17.68000 742.000
17.72000 832.000
17.76000 784.000
17.80000 792.000
17.84000 760.000
17.88000 810.000
17.92000 784.000
17.96000 732.000
18.00000 770.000
18.04000 791.000
18.08000 723.000
18.12000 758.000
18.16000 747.000
18.20000 760.000
18.24000 776.000
18.28000 783.000
18.32000 752.000
18.36000 807.000
18.40000 764.000
18.44000 839.000
18.48000 823.000
18.52000 887.000
18.56000 841.000
18.60000 801.000
18.64000 806.000
18.68000 836.000
18.72000 823.000
18.76000 839.000
18.80000 791.000
18.84000 842.000
18.88000 868.000
18.92000 776.000
18.96000 875.000
19.00000 838.000
19.04000 882.000
19.08000 835.000
19.12000 805.000
19.16000 835.000
19.20000 849.000
19.24000 857.000
19.28000 890.000
19.32000 872.000
19.36000 872.000
19.40000 899.000
19.44000 940.000
19.48000 951.000
19.52000 848.000
19.56000 951.000
19.60000 843.000
19.64000 927.000
19.68000 882.000
19.72000 871.000
19.76000 923.000
19.80000 945.000
19.84000 934.000
19.88000 908.000
19.92000 975.000
19.96000 916.000
20.00000 927.000
20.04000 959.000
20.08000 921.000
20.12000 1035.000
20.16000 963.000
20.20000 924.000
20.24000 912.000
20.28000 889.000
20.32000 971.000
20.36000 947.000
20.40000 994.000
20.44000 943.000
20.48000 988.000
20.52000 1024.000
20.56000 995.000
20.60000 1025.000
20.64000 983.000
20.68000 1107.000
20.72000 1081.000
20.76000 984.000
20.80000 1059.000
20.84000 1096.000
20.88000 1048.000
20.92000 1116.000
20.96000 1094.000
21.00000 1140.000
21.04000 1169.000
21.08000 1136.000
21.12000 1244.000
21.16000 1188.000
21.20000 1165.000
21.24000 1181.000
21.28000 1191.000
21.32000 1109.000
21.36000 1090.000
21.40000 1105.000
21.44000 1091.000
21.48000 1065.000
21.52000 1080.000
21.56000 1089.000
21.60000 1107.000
21.64000 1100.000
21.68000 1069.000
21.72000 1116.000
21.76000 1068.000
21.80000 1083.000
21.84000 1085.000
21.88000 1180.000
21.92000 1096.000
21.96000 1047.000
22.00000 1049.000
22.04000 1121.000
22.08000 1085.000
22.12000 1150.000
22.16000 1089.000
22.20000 1090.000
22.24000 1111.000
22.28000 1116.000
22.32000 1152.000
22.36000 1091.000
22.40000 1135.000
22.44000 1049.000
22.48000 1131.000
22.52000 1115.000
22.56000 1106.000
22.60000 1114.000
22.64000 1125.000
22.68000 1154.000
22.72000 1182.000
22.76000 1125.000
22.80000 1157.000
22.84000 1123.000
22.88000 1179.000
22.92000 1127.000
22.96000 1159.000
23.00000 1122.000
23.04000 1144.000
23.08000 1188.000
23.12000 1199.000
23.16000 1169.000
23.20000 1186.000
23.24000 1243.000
23.28000 1200.000
23.32000 1127.000
23.36000 1214.000
23.40000 1108.000
23.44000 1165.000
23.48000 1155.000
23.52000 1204.000
23.56000 1196.000
23.60000 1130.000
23.64000 1159.000
23.68000 1204.000
23.72000 1165.000
23.76000 1207.000
23.80000 1113.000
23.84000 1195.000
23.88000 1131.000
23.92000 1202.000
23.96000 1192.000
24.00000 1214.000
24.04000 1275.000
24.08000 1198.000
24.12000 1177.000
24.16000 1296.000
24.20000 1272.000
24.24000 1291.000
24.28000 1342.000
24.32000 1272.000
24.36000 1341.000
24.40000 1366.000
24.44000 1387.000
24.48000 1416.000
24.52000 1427.000
24.56000 1327.000
24.60000 1335.000
24.64000 1358.000
24.68000 1380.000
24.72000 1338.000
24.76000 1344.000
24.80000 1316.000
24.84000 1418.000
24.88000 1456.000
24.92000 1389.000
24.96000 1454.000
25.00000 1488.000
25.04000 1559.000
25.08000 1644.000
25.12000 1585.000
25.16000 1717.000
25.20000 1794.000
25.24000 1856.000
25.28000 2030.000
25.32000 2133.000
25.36000 2208.000
25.40000 2188.000
25.44000 2321.000
25.48000 2223.000
25.52000 2156.000
25.56000 2085.000
25.60000 2048.000
25.64000 1949.000
25.68000 1847.000
25.72000 1810.000
25.76000 1825.000
25.80000 1766.000
25.84000 1873.000
25.88000 1964.000
25.92000 2065.000
25.96000 1920.000
26.00000 1946.000
26.04000 1851.000
26.08000 1833.000
26.12000 1695.000
26.16000 1537.000
26.20000 1497.000
26.24000 1443.000
26.28000 1403.000
26.32000 1285.000
26.36000 1278.000
26.40000 1203.000
26.44000 1177.000
26.48000 1195.000
26.52000 1193.000
26.56000 1194.000
26.60000 1178.000
26.64000 1170.000
26.68000 1190.000
26.72000 1172.000
26.76000 1191.000
26.80000 1220.000
26.84000 1112.000
26.88000 1183.000
26.92000 1171.000
26.96000 1140.000
27.00000 1159.000
27.04000 1185.000
27.08000 1215.000
27.12000 1283.000
27.16000 1204.000
27.20000 1269.000
27.24000 1354.000
27.28000 1282.000
27.32000 1312.000
27.36000 1475.000
27.40000 1415.000
27.44000 1437.000
27.48000 1563.000
27.52000 1617.000
27.56000 1680.000
27.60000 1789.000
27.64000 1834.000
27.68000 1881.000
27.72000 1776.000
27.76000 1831.000
27.80000 1684.000
27.84000 1670.000
27.88000 1541.000
27.92000 1473.000
27.96000 1416.000
28.00000 1337.000
28.04000 1190.000
28.08000 1219.000
28.12000 1183.000
28.16000 1182.000
28.20000 1132.000
28.24000 1085.000
28.28000 1181.000
28.32000 1162.000
28.36000 1109.000
28.40000 1108.000
28.44000 1098.000
28.48000 1137.000
28.52000 1128.000
28.56000 1080.000
28.60000 1091.000
28.64000 1060.000
28.68000 1104.000
28.72000 1048.000
28.76000 1075.000
28.80000 1063.000
28.84000 1013.000
28.88000 1051.000
28.92000 1024.000
28.96000 1079.000
29.00000 1080.000
29.04000 1061.000
29.08000 1035.000
29.12000 1067.000
29.16000 1039.000
29.20000 1030.000
29.24000 1063.000
29.28000 1097.000
29.32000 1052.000
29.36000 1016.000
29.40000 1055.000
29.44000 1108.000
29.48000 1119.000
29.52000 1176.000
29.56000 1142.000
29.60000 1195.000
29.64000 1240.000
29.68000 1308.000
29.72000 1385.000
29.76000 1456.000
29.80000 1513.000
29.84000 1479.000
29.88000 1609.000
29.92000 1576.000
29.96000 1665.000
30.00000 1549.000
30.04000 1510.000
30.08000 1414.000
30.12000 1391.000
30.16000 1255.000
30.20000 1160.000
30.24000 1166.000
30.28000 1120.000
30.32000 1010.000
30.36000 1048.000
30.40000 1060.000
30.44000 1050.000
30.48000 960.000
30.52000 1064.000
30.56000 1025.000
30.60000 1008.000
30.64000 1025.000
30.68000 984.000
30.72000 934.000
30.76000 989.000
30.80000 951.000
30.84000 1010.000
30.88000 994.000
30.92000 996.000
30.96000 943.000
31.00000 995.000
31.04000 958.000
31.08000 959.000
31.12000 944.000
31.16000 940.000
31.20000 950.000
31.24000 953.000
31.28000 975.000
31.32000 949.000
31.36000 915.000
31.40000 911.000
31.44000 939.000
31.48000 988.000
31.52000 949.000
31.56000 969.000
31.60000 869.000
31.64000 969.000
31.68000 921.000
31.72000 903.000
31.76000 933.000
31.80000 954.000
31.84000 899.000
31.88000 935.000
31.92000 971.000
31.96000 963.000
32.00000 924.000
32.04000 941.000
32.08000 963.000
32.12000 936.000
32.16000 977.000
32.20000 1006.000
32.24000 1017.000
32.28000 994.000
32.32000 1066.000
32.36000 1034.000
32.40000 1093.000
32.44000 1093.000
32.48000 1176.000
32.52000 1192.000
32.56000 1159.000
32.60000 1195.000
32.64000 1225.000
32.68000 1144.000
32.72000 1238.000
32.76000 1167.000
32.80000 1114.000
32.84000 1077.000
32.88000 1072.000
32.92000 1003.000
32.96000 1054.000
33.00000 1013.000
33.04000 957.000
33.08000 934.000
33.12000 893.000
33.16000 914.000
33.20000 891.000
33.24000 867.000
33.28000 891.000
33.32000 854.000
33.36000 906.000
33.40000 862.000
33.44000 849.000
33.48000 907.000
33.52000 809.000
33.56000 832.000
33.60000 797.000
33.64000 828.000
33.68000 828.000
33.72000 838.000
33.76000 765.000
33.80000 833.000
33.84000 757.000
33.88000 723.000
33.92000 710.000
33.96000 735.000
34.00000 737.000
34.04000 768.000
34.08000 775.000
34.12000 747.000
34.16000 773.000
34.20000 710.000
34.24000 750.000
34.28000 754.000
34.32000 751.000
34.36000 683.000
34.40000 718.000
34.44000 722.000
34.48000 716.000
34.52000 698.000
34.56000 700.000
34.60000 731.000
34.64000 728.000
34.68000 717.000
34.72000 711.000
34.76000 684.000
34.80000 668.000
34.84000 643.000
34.88000 767.000
34.92000 727.000
34.96000 656.000
35.00000 707.000
35.04000 646.000
35.08000 666.000
35.12000 679.000
35.16000 694.000
35.20000 638.000
35.24000 674.000
35.28000 732.000
35.32000 684.000
35.36000 652.000
35.40000 698.000
35.44000 622.000
35.48000 670.000
35.52000 659.000
35.56000 651.000
35.60000 654.000
35.64000 658.000
35.68000 639.000
35.72000 636.000
35.76000 645.000
35.80000 677.000
35.84000 655.000
35.88000 646.000
35.92000 663.000
35.96000 630.000
36.00000 665.000
36.04000 654.000
36.08000 639.000
36.12000 655.000
36.16000 598.000
36.20000 642.000
36.24000 630.000
36.28000 599.000
36.32000 584.000
36.36000 620.000
36.40000 635.000
36.44000 588.000
36.48000 614.000
36.52000 583.000
36.56000 605.000
36.60000 571.000
36.64000 615.000
36.68000 548.000
36.72000 571.000
36.76000 566.000
36.80000 541.000
36.84000 598.000
36.88000 616.000
36.92000 613.000
36.96000 628.000
37.00000 612.000
37.04000 592.000
37.08000 630.000
37.12000 617.000
37.16000 562.000
37.20000 577.000
37.24000 593.000
37.28000 604.000
37.32000 541.000
37.36000 555.000
37.40000 579.000
37.44000 534.000
37.48000 543.000
37.52000 573.000
37.56000 580.000
37.60000 588.000
37.64000 545.000
37.68000 551.000
37.72000 550.000
37.76000 538.000
37.80000 549.000
37.84000 573.000
37.88000 591.000
37.92000 567.000
37.96000 554.000
38.00000 538.000
38.04000 561.000
38.08000 557.000
38.12000 562.000
38.16000 562.000
38.20000 548.000
38.24000 554.000
38.28000 552.000
38.32000 562.000
38.36000 560.000
38.40000 558.000
38.44000 583.000
38.48000 561.000
38.52000 581.000
38.56000 551.000
38.60000 566.000
38.64000 546.000
38.68000 550.000
38.72000 605.000
38.76000 601.000
38.80000 568.000
38.84000 604.000
38.88000 594.000
38.92000 649.000
38.96000 628.000
39.00000 624.000
39.04000 608.000
39.08000 609.000
39.12000 665.000
39.16000 604.000
39.20000 579.000
39.24000 593.000
39.28000 599.000
39.32000 567.000
39.36000 633.000
39.40000 633.000
39.44000 636.000
39.48000 599.000
39.52000 569.000
39.56000 583.000
39.60000 581.000
39.64000 525.000
39.68000 551.000
39.72000 533.000
39.76000 527.000
39.80000 521.000
39.84000 544.000
39.88000 518.000
39.92000 505.000
39.96000 538.000
40.00000 539.000
40.04000 526.000
40.08000 505.000
40.12000 536.000
40.16000 524.000
40.20000 518.000
40.24000 491.000
40.28000 568.000
40.32000 515.000
40.36000 478.000
40.40000 506.000
40.44000 558.000
40.48000 520.000
40.52000 569.000
40.56000 502.000
40.60000 494.000
40.64000 512.000
40.68000 519.000
40.72000 520.000
40.76000 491.000
40.80000 533.000
40.84000 523.000
40.88000 500.000
40.92000 525.000
40.96000 530.000
41.00000 571.000
41.04000 601.000
41.08000 532.000
41.12000 525.000
41.16000 575.000
41.20000 569.000
41.24000 543.000
41.28000 527.000
41.32000 548.000
41.36000 527.000
41.40000 553.000
41.44000 533.000
41.48000 548.000
41.52000 556.000
41.56000 555.000
41.60000 500.000
41.64000 507.000
41.68000 514.000
41.72000 569.000
41.76000 550.000
41.80000 532.000
41.84000 537.000
41.88000 535.000
41.92000 558.000
41.96000 529.000
42.00000 491.000
42.04000 587.000
42.08000 560.000
42.12000 549.000
42.16000 589.000
42.20000 561.000
42.24000 573.000
42.28000 596.000
42.32000 662.000
42.36000 633.000
42.40000 604.000
42.44000 661.000
42.48000 649.000
42.52000 640.000
42.56000 653.000
42.60000 696.000
42.64000 635.000
42.68000 624.000
42.72000 634.000
42.76000 649.000
42.80000 606.000
42.84000 662.000
42.88000 647.000
42.92000 659.000
42.96000 664.000
43.00000 713.000
43.04000 721.000
43.08000 757.000
43.12000 764.000
43.16000 828.000
43.20000 829.000
43.24000 811.000
43.28000 793.000
43.32000 784.000
43.36000 718.000
43.40000 664.000
43.44000 641.000
43.48000 612.000
43.52000 608.000
43.56000 567.000
43.60000 560.000
43.64000 540.000
43.68000 573.000
43.72000 530.000
43.76000 548.000
43.80000 547.000
43.84000 546.000
43.88000 562.000
43.92000 514.000
43.96000 528.000
44.00000 518.000
44.04000 529.000
44.08000 507.000
44.12000 525.000
44.16000 528.000
44.20000 552.000
44.24000 541.000
44.28000 526.000
44.32000 494.000
44.36000 540.000
44.40000 558.000
44.44000 498.000
44.48000 484.000
44.52000 515.000
44.56000 514.000
44.60000 492.000
44.64000 549.000
44.68000 532.000
44.72000 495.000
44.76000 571.000
44.80000 505.000
44.84000 525.000
44.88000 519.000
44.92000 501.000
44.96000 538.000
45.00000 531.000
45.04000 522.000
45.08000 554.000
45.12000 483.000
45.16000 531.000
45.20000 521.000
45.24000 492.000
45.28000 525.000
45.32000 517.000
45.36000 543.000
45.40000 472.000
45.44000 519.000
45.48000 522.000
45.52000 514.000
45.56000 527.000
45.60000 506.000
45.64000 550.000
45.68000 547.000
45.72000 537.000
45.76000 525.000
45.80000 518.000
45.84000 538.000
45.88000 600.000
45.92000 578.000
45.96000 585.000
46.00000 569.000
46.04000 576.000
46.08000 586.000
46.12000 625.000
46.16000 621.000
46.20000 689.000
46.24000 646.000
46.28000 621.000
46.32000 646.000
46.36000 632.000
46.40000 618.000
46.44000 597.000
46.48000 585.000
46.52000 579.000
46.56000 570.000
46.60000 537.000
46.64000 502.000
46.68000 530.000
46.72000 515.000
46.76000 501.000
46.80000 512.000
46.84000 496.000
46.88000 561.000
46.92000 507.000
46.96000 510.000
47.00000 484.000
47.04000 540.000
47.08000 480.000
47.12000 457.000
47.16000 499.000
47.20000 481.000
47.24000 511.000
47.28000 483.000
47.32000 479.000
47.36000 483.000
47.40000 498.000
47.44000 524.000
47.48000 477.000
47.52000 471.000
47.56000 445.000
47.60000 485.000
47.64000 465.000
47.68000 441.000
47.72000 501.000
47.76000 478.000
47.80000 460.000
47.84000 472.000
47.88000 456.000
47.92000 465.000
47.96000 474.000
48.00000 457.000
48.04000 456.000
48.08000 523.000
48.12000 497.000
48.16000 463.000
48.20000 437.000
48.24000 482.000
48.28000 451.000
48.32000 462.000
48.36000 464.000
48.40000 483.000
48.44000 461.000
48.48000 499.000
48.52000 495.000
48.56000 465.000
48.60000 463.000
48.64000 460.000
48.68000 455.000
48.72000 441.000
48.76000 456.000
48.80000 472.000
48.84000 476.000
48.88000 467.000
48.92000 503.000
48.96000 447.000
49.00000 468.000
49.04000 476.000
49.08000 434.000
49.12000 466.000
49.16000 436.000
49.20000 494.000
49.24000 489.000
49.28000 498.000
49.32000 452.000
49.36000 448.000
49.40000 448.000
49.44000 480.000
49.48000 478.000
49.52000 459.000
49.56000 508.000
49.60000 447.000
49.64000 463.000
49.68000 467.000
49.72000 486.000
49.76000 465.000
49.80000 449.000
49.84000 480.000
49.88000 431.000
49.92000 483.000
49.96000 512.000
50.00000 484.000
50.04000 477.000
50.08000 503.000
50.12000 458.000
50.16000 490.000
50.20000 471.000
50.24000 503.000
50.28000 490.000
50.32000 538.000
50.36000 486.000
50.40000 499.000
50.44000 492.000
50.48000 516.000
50.52000 487.000
50.56000 529.000
50.60000 538.000
50.64000 536.000
50.68000 541.000
50.72000 552.000
50.76000 552.000
50.80000 567.000
50.84000 569.000
50.88000 574.000
50.92000 550.000
50.96000 574.000
51.00000 539.000
51.04000 555.000
51.08000 510.000
51.12000 504.000
51.16000 550.000
51.20000 551.000
51.24000 526.000
51.28000 532.000
51.32000 513.000
51.36000 500.000
51.40000 509.000
51.44000 486.000
51.48000 470.000
51.52000 441.000
51.56000 464.000
51.60000 486.000
51.64000 467.000
51.68000 471.000
51.72000 454.000
51.76000 461.000
51.80000 499.000
51.84000 486.000
51.88000 452.000
51.92000 506.000
51.96000 524.000
52.00000 516.000
52.04000 528.000
52.08000 506.000
52.12000 561.000
52.16000 529.000
52.20000 556.000
52.24000 543.000
52.28000 564.000
52.32000 544.000
52.36000 489.000
52.40000 514.000
52.44000 542.000
52.48000 511.000
52.52000 483.000
52.56000 460.000
52.60000 487.000
52.64000 492.000
52.68000 502.000
52.72000 436.000
52.76000 476.000
52.80000 475.000
52.84000 460.000
52.88000 439.000
52.92000 471.000
52.96000 437.000
53.00000 452.000
53.04000 447.000
53.08000 431.000
53.12000 423.000
53.16000 458.000
53.20000 452.000
53.24000 437.000
53.28000 474.000
53.32000 442.000
53.36000 423.000
53.40000 489.000
53.44000 483.000
53.48000 453.000
53.52000 451.000
53.56000 456.000
53.60000 480.000
53.64000 420.000
53.68000 451.000
53.72000 464.000
53.76000 447.000
53.80000 428.000
53.84000 436.000
53.88000 493.000
53.92000 472.000
53.96000 440.000
54.00000 440.000
54.04000 441.000
54.08000 409.000
54.12000 468.000
54.16000 406.000
54.20000 463.000
54.24000 428.000
54.28000 449.000
54.32000 470.000
54.36000 444.000
54.40000 414.000
54.44000 497.000
54.48000 428.000
54.52000 455.000
54.56000 392.000
54.60000 439.000
54.64000 450.000
54.68000 444.000
54.72000 448.000
54.76000 441.000
54.80000 404.000
54.84000 490.000
54.88000 401.000
54.92000 452.000
54.96000 487.000
55.00000 421.000
55.04000 426.000
55.08000 428.000
55.12000 438.000
55.16000 472.000
55.20000 465.000
55.24000 459.000
55.28000 484.000
55.32000 461.000
55.36000 464.000
55.40000 477.000
55.44000 464.000
55.48000 443.000
55.52000 426.000
55.56000 400.000
55.60000 439.000
55.64000 412.000
55.68000 409.000
55.72000 440.000
55.76000 436.000
55.80000 459.000
55.84000 415.000
55.88000 405.000
55.92000 418.000
55.96000 438.000
56.00000 448.000
56.04000 432.000
56.08000 449.000
56.12000 411.000
56.16000 461.000
56.20000 427.000
56.24000 454.000
56.28000 414.000
56.32000 445.000
56.36000 454.000
56.40000 388.000
56.44000 438.000
56.48000 424.000
56.52000 406.000
56.56000 434.000
56.60000 374.000
56.64000 480.000
56.68000 436.000
56.72000 459.000
56.76000 457.000
56.80000 380.000
56.84000 436.000
56.88000 406.000
56.92000 472.000
56.96000 433.000
57.00000 444.000
57.04000 389.000
57.08000 428.000
57.12000 435.000
57.16000 450.000
57.20000 463.000
57.24000 425.000
57.28000 484.000
57.32000 447.000
57.36000 424.000
57.40000 458.000
57.44000 442.000
57.48000 428.000
57.52000 424.000
57.56000 441.000
57.60000 436.000
57.64000 417.000
57.68000 420.000
57.72000 433.000
57.76000 430.000
57.80000 410.000
57.84000 457.000
57.88000 418.000
57.92000 421.000
57.96000 395.000
58.00000 482.000
58.04000 428.000
58.08000 428.000
58.12000 469.000
58.16000 460.000
58.20000 435.000
58.24000 424.000
58.28000 426.000
58.32000 422.000
58.36000 429.000
58.40000 420.000
58.44000 425.000
58.48000 440.000
58.52000 388.000
58.56000 437.000
58.60000 403.000
58.64000 449.000
58.68000 420.000
58.72000 441.000
58.76000 435.000
58.80000 478.000
58.84000 510.000
58.88000 445.000
58.92000 466.000
58.96000 491.000
59.00000 406.000
59.04000 440.000
59.08000 433.000
59.12000 411.000
59.16000 438.000
59.20000 474.000
59.24000 416.000
59.28000 411.000
59.32000 443.000
59.36000 464.000
59.40000 407.000
59.44000 434.000
59.48000 453.000
59.52000 434.000
59.56000 446.000
59.60000 426.000
59.64000 445.000
59.68000 458.000
59.72000 439.000
59.76000 434.000
59.80000 422.000
59.84000 403.000
59.88000 406.000
59.92000 432.000