File: XRD/52.xy
5.00000 1445.000
5.04000 1464.000
5.08000 1348.000
5.12000 1405.000
5.16000 1336.000
5.20000 1347.000
5.24000 1352.000
5.28000 1344.000
5.32000 1384.000
5.36000 1316.000
5.40000 1301.000
5.44000 1286.000
5.48000 1268.000
5.52000 1206.000
5.56000 1321.000
5.60000 1255.000
5.64000 1305.000
5.68000 1243.000
5.72000 1288.000
5.76000 1220.000
5.80000 1184.000
5.84000 1205.000
5.88000 1227.000
5.92000 1231.000
5.96000 1164.000
6.00000 1187.000
6.04000 1204.000
6.08000 1115.000
6.12000 1182.000
6.16000 1073.000
6.20000 1127.000
6.24000 1121.000
6.28000 1143.000
6.32000 1161.000
6.36000 1101.000
6.40000 1115.000
6.44000 1094.000
6.48000 1093.000
6.52000 1102.000
6.56000 1052.000
6.60000 1066.000
6.64000 1038.000
6.68000 1017.000
6.72000 975.000
6.76000 1049.000
6.80000 1103.000
6.84000 1020.000
6.88000 1002.000
6.92000 995.000
6.96000 1009.000
7.00000 991.000
7.04000 991.000
7.08000 993.000
7.12000 1016.000
7.16000 1026.000
7.20000 941.000
7.24000 1017.000
7.28000 952.000
7.32000 976.000
7.36000 1036.000
7.40000 1033.000
7.44000 996.000
7.48000 972.000
7.52000 975.000
7.56000 964.000
7.60000 939.000
7.64000 938.000
7.68000 998.000
7.72000 950.000
7.76000 988.000
7.80000 962.000
7.84000 974.000
7.88000 928.000
7.92000 937.000
7.96000 920.000
8.00000 965.000
8.04000 876.000
8.08000 997.000
8.12000 945.000
8.16000 949.000
8.20000 991.000
8.24000 1029.000
8.28000 924.000
8.32000 973.000
8.36000 995.000
8.40000 1007.000
8.44000 938.000
8.48000 1000.000
8.52000 933.000
8.56000 946.000
8.60000 908.000
8.64000 893.000
8.68000 850.000
8.72000 899.000
8.76000 844.000
8.80000 797.000
8.84000 813.000
8.88000 828.000
8.92000 824.000
8.96000 808.000
9.00000 858.000
9.04000 799.000
9.08000 825.000
9.12000 817.000
9.16000 815.000
9.20000 765.000
9.24000 739.000
9.28000 750.000
9.32000 748.000
9.36000 786.000
9.40000 835.000
9.44000 798.000
9.48000 755.000
9.52000 745.000
9.56000 734.000
9.60000 732.000
9.64000 738.000
9.68000 814.000
9.72000 782.000
9.76000 802.000
9.80000 750.000
9.84000 761.000
9.88000 706.000
9.92000 774.000
9.96000 745.000
10.00000 705.000
10.04000 756.000
10.08000 700.000
10.12000 733.000
10.16000 743.000
10.20000 734.000
10.24000 685.000
10.28000 731.000
10.32000 745.000
10.36000 693.000
10.40000 766.000
10.44000 683.000
10.48000 738.000
10.52000 728.000
10.56000 718.000
10.60000 728.000
10.64000 706.000
10.68000 717.000
10.72000 680.000
10.76000 704.000
10.80000 666.000
10.84000 683.000
10.88000 704.000
10.92000 676.000
10.96000 733.000
11.00000 696.000
11.04000 666.000
11.08000 710.000
11.12000 719.000
11.16000 691.000
11.20000 689.000
11.24000 715.000
11.28000 711.000
11.32000 662.000
11.36000 706.000
11.40000 740.000
11.44000 663.000
11.48000 676.000
11.52000 663.000
11.56000 732.000
11.60000 708.000
11.64000 707.000
11.68000 758.000
11.72000 745.000
11.76000 665.000
11.80000 733.000
11.84000 681.000
11.88000 714.000
11.92000 716.000
11.96000 773.000
12.00000 762.000
12.04000 745.000
12.08000 814.000
12.12000 774.000
12.16000 849.000
12.20000 778.000
12.24000 783.000
12.28000 796.000
12.32000 801.000
12.36000 800.000
12.40000 764.000
12.44000 763.000
12.48000 797.000
12.52000 793.000
12.56000 801.000
12.60000 846.000
12.64000 810.000
12.68000 876.000
12.72000 957.000
12.76000 950.000
12.80000 949.000
12.84000 949.000
12.88000 978.000
12.92000 945.000
12.96000 1004.000
13.00000 863.000
13.04000 862.000
13.08000 799.000
13.12000 762.000
13.16000 755.000
13.20000 710.000
13.24000 696.000
13.28000 668.000
13.32000 682.000
13.36000 714.000
13.40000 646.000
13.44000 639.000
13.48000 610.000
13.52000 691.000
13.56000 661.000
13.60000 669.000
13.64000 633.000
13.68000 657.000
13.72000 655.000
13.76000 652.000
13.80000 673.000
13.84000 605.000
13.88000 634.000
13.92000 651.000
13.96000 647.000
14.00000 669.000
14.04000 674.000
14.08000 675.000
14.12000 621.000
14.16000 608.000
14.20000 626.000
14.24000 619.000
14.28000 654.000
14.32000 622.000
14.36000 649.000
14.40000 652.000
14.44000 646.000
14.48000 704.000
14.52000 608.000
14.56000 666.000
14.60000 630.000
14.64000 592.000
14.68000 649.000
14.72000 620.000
14.76000 711.000
14.80000 682.000
14.84000 725.000
14.88000 666.000
14.92000 606.000
14.96000 677.000
15.00000 676.000
15.04000 673.000
15.08000 647.000
15.12000 640.000
15.16000 677.000
15.20000 639.000
15.24000 651.000
15.28000 687.000
15.32000 616.000
15.36000 660.000
15.40000 649.000
15.44000 649.000
15.48000 692.000
15.52000 681.000
15.56000 681.000
15.60000 677.000
15.64000 645.000
15.68000 633.000
15.72000 637.000
15.76000 676.000
15.80000 655.000
15.84000 702.000
15.88000 667.000
15.92000 620.000
15.96000 662.000
16.00000 683.000
16.04000 699.000
16.08000 664.000
16.12000 683.000
16.16000 707.000
16.20000 739.000
16.24000 730.000
16.28000 662.000
16.32000 697.000
16.36000 713.000
16.40000 724.000
16.44000 678.000
16.48000 694.000
16.52000 712.000
16.56000 754.000
16.60000 732.000
16.64000 739.000
16.68000 732.000
16.72000 745.000
16.76000 760.000
16.80000 775.000
16.84000 744.000
16.88000 802.000
16.92000 743.000
16.96000 807.000
17.00000 788.000
17.04000 788.000
17.08000 784.000
17.12000 784.000
17.16000 749.000
17.20000 759.000
17.24000 763.000
17.28000 777.000
17.32000 769.000
17.36000 769.000
17.40000 777.000
17.44000 768.000
17.48000 749.000
17.52000 768.000
17.56000 736.000
17.60000 786.000
17.64000 797.000
17.68000 782.000
17.72000 825.000
17.76000 774.000
17.80000 753.000
17.84000 758.000
17.88000 765.000
17.92000 756.000
17.96000 769.000
18.00000 772.000
18.04000 771.000
18.08000 798.000
18.12000 731.000
18.16000 831.000
18.20000 743.000
18.24000 781.000
18.28000 791.000
18.32000 746.000
18.36000 835.000
18.40000 845.000
18.44000 837.000
18.48000 842.000
18.52000 861.000
18.56000 808.000
18.60000 851.000
18.64000 866.000
18.68000 803.000
18.72000 861.000
18.76000 873.000
18.80000 836.000
18.84000 850.000
18.88000 838.000
18.92000 889.000
18.96000 927.000
19.00000 877.000
19.04000 880.000
19.08000 904.000
19.12000 901.000
19.16000 897.000
19.20000 922.000
19.24000 797.000
19.28000 876.000
19.32000 916.000
19.36000 865.000
19.40000 921.000
19.44000 898.000
19.48000 913.000
19.52000 906.000
19.56000 943.000
19.60000 906.000
19.64000 899.000
19.68000 900.000
19.72000 914.000
19.76000 925.000
19.80000 939.000
19.84000 926.000
19.88000 958.000
19.92000 919.000
19.96000 890.000
20.00000 941.000
20.04000 985.000
20.08000 908.000
20.12000 970.000
20.16000 929.000
20.20000 960.000
20.24000 918.000
20.28000 1005.000
20.32000 986.000
20.36000 955.000
20.40000 968.000
20.44000 974.000
20.48000 1012.000
20.52000 1030.000
20.56000 967.000
20.60000 958.000
20.64000 1070.000
20.68000 1087.000
20.72000 1024.000
20.76000 1044.000
20.80000 1061.000
20.84000 1111.000
20.88000 1043.000
20.92000 1090.000
20.96000 1117.000
21.00000 1077.000
21.04000 1139.000
21.08000 1115.000
21.12000 1127.000
21.16000 1149.000
21.20000 1145.000
21.24000 1107.000
21.28000 1118.000
21.32000 1100.000
21.36000 1035.000
21.40000 1089.000
21.44000 1121.000
21.48000 1086.000
21.52000 1105.000
21.56000 1077.000
21.60000 1077.000
21.64000 1112.000
21.68000 1065.000
21.72000 1067.000
21.76000 1065.000
21.80000 1085.000
21.84000 1102.000
21.88000 1104.000
21.92000 1149.000
21.96000 1119.000
22.00000 1105.000
22.04000 1157.000
22.08000 1132.000
22.12000 1102.000
22.16000 1085.000
22.20000 1097.000
22.24000 1124.000
22.28000 1142.000
22.32000 1179.000
22.36000 1110.000
22.40000 1102.000
22.44000 1126.000
22.48000 1139.000
22.52000 1094.000
22.56000 1132.000
22.60000 1129.000
22.64000 1137.000
22.68000 1121.000
22.72000 1168.000
22.76000 1185.000
22.80000 1132.000
22.84000 1164.000
22.88000 1172.000
22.92000 1215.000
22.96000 1145.000
23.00000 1098.000
23.04000 1170.000
23.08000 1135.000
23.12000 1192.000
23.16000 1189.000
23.20000 1163.000
23.24000 1135.000
23.28000 1186.000
23.32000 1171.000
23.36000 1165.000
23.40000 1204.000
23.44000 1192.000
23.48000 1165.000
23.52000 1230.000
23.56000 1130.000
23.60000 1106.000
23.64000 1196.000
23.68000 1192.000
23.72000 1246.000
23.76000 1192.000
23.80000 1179.000
23.84000 1178.000
23.88000 1212.000
23.92000 1237.000
23.96000 1232.000
24.00000 1304.000
24.04000 1184.000
24.08000 1191.000
24.12000 1234.000
24.16000 1246.000
24.20000 1296.000
24.24000 1253.000
24.28000 1314.000
24.32000 1315.000
24.36000 1331.000
24.40000 1347.000
24.44000 1333.000
24.48000 1386.000
24.52000 1346.000
24.56000 1349.000
24.60000 1315.000
24.64000 1383.000
24.68000 1367.000
24.72000 1412.000
24.76000 1424.000
24.80000 1385.000
24.84000 1426.000
24.88000 1429.000
24.92000 1459.000
24.96000 1453.000
25.00000 1478.000
25.04000 1478.000
25.08000 1554.000
25.12000 1633.000
25.16000 1694.000
25.20000 1799.000
25.24000 1808.000
25.28000 1844.000
25.32000 1940.000
25.36000 2084.000
25.40000 2050.000
25.44000 2114.000
25.48000 2138.000
25.52000 2095.000
25.56000 2089.000
25.60000 2024.000
25.64000 1961.000
25.68000 1941.000
25.72000 1956.000
25.76000 1920.000
25.80000 1804.000
25.84000 1855.000
25.88000 1892.000
25.92000 1867.000
25.96000 1901.000
26.00000 1802.000
26.04000 1838.000
26.08000 1776.000
26.12000 1731.000
26.16000 1597.000
26.20000 1512.000
26.24000 1464.000
26.28000 1346.000
26.32000 1442.000
26.36000 1299.000
26.40000 1307.000
26.44000 1289.000
26.48000 1250.000
26.52000 1241.000
26.56000 1220.000
26.60000 1190.000
26.64000 1166.000
26.68000 1203.000
26.72000 1226.000
26.76000 1188.000
26.80000 1222.000
26.84000 1122.000
26.88000 1201.000
26.92000 1175.000
26.96000 1226.000
27.00000 1225.000
27.04000 1210.000
27.08000 1285.000
27.12000 1266.000
27.16000 1201.000
27.20000 1286.000
27.24000 1280.000
27.28000 1318.000
27.32000 1310.000
27.36000 1353.000
27.40000 1487.000
27.44000 1420.000
27.48000 1532.000
27.52000 1590.000
27.56000 1554.000
27.60000 1624.000
27.64000 1647.000
27.68000 1753.000
27.72000 1730.000
27.76000 1693.000
27.80000 1613.000
27.84000 1484.000
27.88000 1520.000
27.92000 1430.000
27.96000 1333.000
28.00000 1311.000
28.04000 1302.000
28.08000 1212.000
28.12000 1238.000
28.16000 1220.000
28.20000 1186.000
28.24000 1202.000
28.28000 1142.000
28.32000 1114.000
28.36000 1151.000
28.40000 1122.000
28.44000 1130.000
28.48000 1105.000
28.52000 1146.000
28.56000 1159.000
28.60000 1077.000
28.64000 1083.000
28.68000 1135.000
28.72000 1101.000
28.76000 1088.000
28.80000 1139.000
28.84000 1018.000
28.88000 1070.000
28.92000 1068.000
28.96000 1054.000
29.00000 1086.000
29.04000 1102.000
29.08000 1131.000
29.12000 1054.000
29.16000 1035.000
29.20000 1084.000
29.24000 1078.000
29.28000 1089.000
29.32000 1062.000
29.36000 1079.000
29.40000 1082.000
29.44000 1133.000
29.48000 1131.000
29.52000 1132.000
29.56000 1160.000
29.60000 1198.000
29.64000 1199.000
29.68000 1295.000
29.72000 1343.000
29.76000 1470.000
29.80000 1443.000
29.84000 1556.000
29.88000 1432.000
29.92000 1579.000
29.96000 1491.000
30.00000 1564.000
30.04000 1435.000
30.08000 1413.000
30.12000 1313.000
30.16000 1283.000
30.20000 1218.000
30.24000 1186.000
30.28000 1135.000
30.32000 1136.000
30.36000 1109.000
30.40000 1101.000
30.44000 1001.000
30.48000 1015.000
30.52000 987.000
30.56000 999.000
30.60000 1061.000
30.64000 958.000
30.68000 970.000
30.72000 971.000
30.76000 1003.000
30.80000 1032.000
30.84000 976.000
30.88000 991.000
30.92000 976.000
30.96000 950.000
31.00000 927.000
31.04000 964.000
31.08000 903.000
31.12000 954.000
31.16000 950.000
31.20000 998.000
31.24000 945.000
31.28000 861.000
31.32000 917.000
31.36000 1003.000
31.40000 897.000
31.44000 978.000
31.48000 934.000
31.52000 936.000
31.56000 987.000
31.60000 934.000
31.64000 940.000
31.68000 914.000
31.72000 934.000
31.76000 956.000
31.80000 922.000
31.84000 893.000
31.88000 904.000
31.92000 892.000
31.96000 944.000
32.00000 932.000
32.04000 897.000
32.08000 933.000
32.12000 941.000
32.16000 909.000
32.20000 929.000
32.24000 1006.000
32.28000 1009.000
32.32000 956.000
32.36000 990.000
32.40000 1017.000
32.44000 1036.000
32.48000 1079.000
32.52000 1131.000
32.56000 1081.000
32.60000 1151.000
32.64000 1209.000
32.68000 1141.000
32.72000 1146.000
32.76000 1165.000
32.80000 999.000
32.84000 1042.000
32.88000 1015.000
32.92000 1026.000
32.96000 1011.000
33.00000 977.000
33.04000 938.000
33.08000 965.000
33.12000 959.000
33.16000 917.000
33.20000 868.000
33.24000 915.000
33.28000 887.000
33.32000 896.000
33.36000 873.000
33.40000 846.000
33.44000 908.000
33.48000 879.000
33.52000 808.000
33.56000 826.000
33.60000 793.000
33.64000 799.000
33.68000 796.000
33.72000 835.000
33.76000 791.000
33.80000 812.000
33.84000 814.000
33.88000 745.000
33.92000 787.000
33.96000 816.000
34.00000 771.000
34.04000 735.000
34.08000 726.000
34.12000 730.000
34.16000 765.000
34.20000 762.000
34.24000 738.000
34.28000 748.000
34.32000 783.000
34.36000 760.000
34.40000 708.000
34.44000 802.000
34.48000 710.000
34.52000 675.000
34.56000 779.000
34.60000 712.000
34.64000 733.000
34.68000 708.000
34.72000 718.000
34.76000 727.000
34.80000 716.000
34.84000 716.000
34.88000 624.000
34.92000 701.000
34.96000 668.000
35.00000 685.000
35.04000 677.000
35.08000 726.000
35.12000 676.000
35.16000 653.000
35.20000 694.000
35.24000 704.000
35.28000 659.000
35.32000 679.000
35.36000 693.000
35.40000 679.000
35.44000 601.000
35.48000 651.000
35.52000 632.000
35.56000 613.000
35.60000 667.000
35.64000 676.000
35.68000 679.000
35.72000 653.000
35.76000 649.000
35.80000 687.000
35.84000 667.000
35.88000 568.000
35.92000 640.000
35.96000 644.000
36.00000 615.000
36.04000 636.000
36.08000 667.000
36.12000 640.000
36.16000 651.000
36.20000 661.000
36.24000 627.000
36.28000 607.000
36.32000 642.000
36.36000 558.000
36.40000 628.000
36.44000 605.000
36.48000 651.000
36.52000 639.000
36.56000 602.000
36.60000 633.000
36.64000 582.000
36.68000 601.000
36.72000 574.000
36.76000 558.000
36.80000 592.000
36.84000 639.000
36.88000 553.000
36.92000 569.000
36.96000 591.000
37.00000 562.000
37.04000 592.000
37.08000 578.000
37.12000 588.000
37.16000 604.000
37.20000 617.000
37.24000 621.000
37.28000 607.000
37.32000 602.000
37.36000 537.000
37.40000 589.000
37.44000 573.000
37.48000 556.000
37.52000 528.000
37.56000 539.000
37.60000 572.000
37.64000 600.000
37.68000 594.000
37.72000 587.000
37.76000 558.000
37.80000 541.000
37.84000 541.000
37.88000 513.000
37.92000 541.000
37.96000 561.000
38.00000 527.000
38.04000 491.000
38.08000 574.000
38.12000 512.000
38.16000 527.000
38.20000 557.000
38.24000 541.000
38.28000 530.000
38.32000 542.000
38.36000 550.000
38.40000 529.000
38.44000 527.000
38.48000 548.000
38.52000 515.000
38.56000 579.000
38.60000 559.000
38.64000 544.000
38.68000 591.000
38.72000 588.000
38.76000 535.000
38.80000 526.000
38.84000 595.000
38.88000 561.000
38.92000 610.000
38.96000 607.000
39.00000 555.000
39.04000 596.000
39.08000 594.000
39.12000 609.000
39.16000 583.000
39.20000 573.000
39.24000 567.000
39.28000 623.000
39.32000 578.000
39.36000 504.000
39.40000 535.000
39.44000 517.000
39.48000 557.000
39.52000 542.000
39.56000 529.000
39.60000 525.000
39.64000 551.000
39.68000 541.000
39.72000 487.000
39.76000 526.000
39.80000 533.000
39.84000 534.000
39.88000 493.000
39.92000 506.000
39.96000 501.000
40.00000 552.000
40.04000 509.000
40.08000 527.000
40.12000 506.000
40.16000 520.000
40.20000 522.000
40.24000 514.000
40.28000 502.000
40.32000 514.000
40.36000 500.000
40.40000 507.000
40.44000 522.000
40.48000 524.000
40.52000 572.000
40.56000 459.000
40.60000 497.000
40.64000 535.000
40.68000 504.000
40.72000 527.000
40.76000 540.000
40.80000 536.000
40.84000 531.000
40.88000 505.000
40.92000 518.000
40.96000 518.000
41.00000 545.000
41.04000 542.000
41.08000 530.000
41.12000 502.000
41.16000 497.000
41.20000 513.000
41.24000 519.000
41.28000 540.000
41.32000 582.000
41.36000 533.000
41.40000 499.000
41.44000 558.000
41.48000 539.000
41.52000 492.000
41.56000 516.000
41.60000 523.000
41.64000 549.000
41.68000 544.000
41.72000 523.000
41.76000 538.000
41.80000 515.000
41.84000 541.000
41.88000 531.000
41.92000 546.000
41.96000 586.000
42.00000 553.000
42.04000 574.000
42.08000 542.000
42.12000 562.000
42.16000 477.000
42.20000 561.000
42.24000 599.000
42.28000 584.000
42.32000 590.000
42.36000 636.000
42.40000 596.000
42.44000 616.000
42.48000 639.000
42.52000 609.000
42.56000 616.000
42.60000 658.000
42.64000 663.000
42.68000 631.000
42.72000 659.000
42.76000 634.000
42.80000 658.000
42.84000 658.000
42.88000 665.000
42.92000 654.000
42.96000 634.000
43.00000 618.000
43.04000 639.000
43.08000 747.000
43.12000 707.000
43.16000 723.000
43.20000 723.000
43.24000 747.000
43.28000 709.000
43.32000 714.000
43.36000 678.000
43.40000 674.000
43.44000 618.000
43.48000 639.000
43.52000 591.000
43.56000 631.000
43.60000 578.000
43.64000 568.000
43.68000 541.000
43.72000 574.000
43.76000 518.000
43.80000 585.000
43.84000 520.000
43.88000 553.000
43.92000 547.000
43.96000 535.000
44.00000 557.000
44.04000 483.000
44.08000 532.000
44.12000 521.000
44.16000 537.000
44.20000 538.000
44.24000 510.000
44.28000 527.000
44.32000 504.000
44.36000 482.000
44.40000 515.000
44.44000 500.000
44.48000 486.000
44.52000 485.000
44.56000 524.000
44.60000 507.000
44.64000 498.000
44.68000 534.000
44.72000 498.000
44.76000 502.000
44.80000 535.000
44.84000 522.000
44.88000 520.000
44.92000 539.000
44.96000 510.000
45.00000 545.000
45.04000 499.000
45.08000 517.000
45.12000 483.000
45.16000 542.000
45.20000 516.000
45.24000 546.000
45.28000 473.000
45.32000 533.000
45.36000 491.000
45.40000 540.000
45.44000 461.000
45.48000 519.000
45.52000 481.000
45.56000 506.000
45.60000 521.000
45.64000 544.000
45.68000 545.000
45.72000 551.000
45.76000 532.000
45.80000 551.000
45.84000 480.000
45.88000 600.000
45.92000 553.000
45.96000 582.000
46.00000 568.000
46.04000 597.000
46.08000 572.000
46.12000 567.000
46.16000 627.000
46.20000 560.000
46.24000 628.000
46.28000 602.000
46.32000 612.000
46.36000 638.000
46.40000 594.000
46.44000 566.000
46.48000 538.000
46.52000 586.000
46.56000 555.000
46.60000 516.000
46.64000 576.000
46.68000 521.000
46.72000 517.000
46.76000 528.000
46.80000 505.000
46.84000 549.000
46.88000 485.000
46.92000 533.000
46.96000 477.000
47.00000 467.000
47.04000 496.000
47.08000 516.000
47.12000 493.000
47.16000 489.000
47.20000 504.000
47.24000 498.000
47.28000 443.000
47.32000 490.000
47.36000 497.000
47.40000 476.000
47.44000 534.000
47.48000 503.000
47.52000 505.000
47.56000 438.000
47.60000 471.000
47.64000 440.000
47.68000 486.000
47.72000 455.000
47.76000 483.000
47.80000 453.000
47.84000 471.000
47.88000 437.000
47.92000 487.000
47.96000 460.000
48.00000 508.000
48.04000 463.000
48.08000 441.000
48.12000 451.000
48.16000 446.000
48.20000 498.000
48.24000 438.000
48.28000 490.000
48.32000 475.000
48.36000 439.000
48.40000 472.000
48.44000 465.000
48.48000 462.000
48.52000 444.000
48.56000 453.000
48.60000 441.000
48.64000 479.000
48.68000 457.000
48.72000 461.000
48.76000 487.000
48.80000 448.000
48.84000 491.000
48.88000 483.000
48.92000 464.000
48.96000 441.000
49.00000 457.000
49.04000 514.000
49.08000 482.000
49.12000 447.000
49.16000 490.000
49.20000 452.000
49.24000 451.000
49.28000 455.000
49.32000 459.000
49.36000 459.000
49.40000 463.000
49.44000 487.000
49.48000 458.000
49.52000 489.000
49.56000 444.000
49.60000 486.000
49.64000 435.000
49.68000 459.000
49.72000 484.000
49.76000 461.000
49.80000 477.000
49.84000 473.000
49.88000 485.000
49.92000 457.000
49.96000 466.000
50.00000 495.000
50.04000 487.000
50.08000 500.000
50.12000 469.000
50.16000 502.000
50.20000 492.000
50.24000 510.000
50.28000 519.000
50.32000 491.000
50.36000 499.000
50.40000 503.000
50.44000 466.000
50.48000 475.000
50.52000 519.000
50.56000 466.000
50.60000 486.000
50.64000 521.000
50.68000 510.000
50.72000 502.000
50.76000 504.000
50.80000 521.000
50.84000 505.000
50.88000 531.000
50.92000 489.000
50.96000 538.000
51.00000 562.000
51.04000 524.000
51.08000 484.000
51.12000 482.000
51.16000 459.000
51.20000 522.000
51.24000 486.000
51.28000 474.000
51.32000 516.000
51.36000 473.000
51.40000 478.000
51.44000 469.000
51.48000 443.000
51.52000 462.000
51.56000 480.000
51.60000 481.000
51.64000 468.000
51.68000 488.000
51.72000 469.000
51.76000 502.000
51.80000 451.000
51.84000 486.000
51.88000 459.000
51.92000 439.000
51.96000 463.000
52.00000 498.000
52.04000 505.000
52.08000 537.000
52.12000 518.000
52.16000 528.000
52.20000 529.000
52.24000 523.000
52.28000 551.000
52.32000 534.000
52.36000 585.000
52.40000 480.000
52.44000 500.000
52.48000 508.000
52.52000 492.000
52.56000 455.000
52.60000 514.000
52.64000 510.000
52.68000 498.000
52.72000 461.000
52.76000 448.000
52.80000 458.000
52.84000 446.000
52.88000 436.000
52.92000 442.000
52.96000 435.000
53.00000 451.000
53.04000 466.000
53.08000 452.000
53.12000 473.000
53.16000 445.000
53.20000 448.000
53.24000 447.000
53.28000 440.000
53.32000 492.000
53.36000 457.000
53.40000 482.000
53.44000 452.000
53.48000 423.000
53.52000 446.000
53.56000 444.000
53.60000 431.000
53.64000 460.000
53.68000 448.000
53.72000 433.000
53.76000 439.000
53.80000 435.000
53.84000 452.000
53.88000 438.000
53.92000 433.000
53.96000 426.000
54.00000 437.000
54.04000 431.000
54.08000 451.000
54.12000 426.000
54.16000 460.000
54.20000 434.000
54.24000 414.000
54.28000 438.000
54.32000 468.000
54.36000 429.000
54.40000 418.000
54.44000 399.000
54.48000 447.000
54.52000 442.000
54.56000 424.000
54.60000 479.000
54.64000 414.000
54.68000 418.000
54.72000 441.000
54.76000 444.000
54.80000 441.000
54.84000 464.000
54.88000 432.000
54.92000 413.000
54.96000 466.000
55.00000 429.000
55.04000 470.000
55.08000 472.000
55.12000 457.000
55.16000 422.000
55.20000 452.000
55.24000 450.000
55.28000 433.000
55.32000 426.000
55.36000 390.000
55.40000 456.000
55.44000 416.000
55.48000 438.000
55.52000 450.000
55.56000 427.000
55.60000 441.000
55.64000 431.000
55.68000 411.000
55.72000 416.000
55.76000 450.000
55.80000 410.000
55.84000 428.000
55.88000 428.000
55.92000 471.000
55.96000 440.000
56.00000 414.000
56.04000 455.000
56.08000 438.000
56.12000 447.000
56.16000 451.000
56.20000 386.000
56.24000 462.000
56.28000 416.000
56.32000 426.000
56.36000 437.000
56.40000 476.000
56.44000 422.000
56.48000 410.000
56.52000 414.000
56.56000 432.000
56.60000 445.000
56.64000 419.000
56.68000 442.000
56.72000 417.000
56.76000 442.000
56.80000 418.000
56.84000 452.000
56.88000 432.000
56.92000 465.000
56.96000 444.000
57.00000 418.000
57.04000 418.000
57.08000 488.000
57.12000 399.000
57.16000 453.000
57.20000 417.000
57.24000 434.000
57.28000 433.000
57.32000 437.000
57.36000 444.000
57.40000 443.000
57.44000 450.000
57.48000 379.000
57.52000 422.000
57.56000 416.000
57.60000 435.000
57.64000 416.000
57.68000 479.000
57.72000 414.000
57.76000 428.000
57.80000 434.000
57.84000 416.000
57.88000 425.000
57.92000 441.000
57.96000 455.000
58.00000 444.000
58.04000 424.000
58.08000 442.000
58.12000 413.000
58.16000 444.000
58.20000 396.000
58.24000 420.000
58.28000 469.000
58.32000 426.000
58.36000 458.000
58.40000 430.000
58.44000 388.000
58.48000 450.000
58.52000 408.000
58.56000 430.000
58.60000 432.000
58.64000 435.000
58.68000 448.000
58.72000 447.000
58.76000 427.000
58.80000 431.000
58.84000 479.000
58.88000 417.000
58.92000 448.000
58.96000 451.000
59.00000 444.000
59.04000 466.000
59.08000 445.000
59.12000 468.000
59.16000 448.000
59.20000 478.000
59.24000 428.000
59.28000 438.000
59.32000 442.000
59.36000 450.000
59.40000 386.000
59.44000 441.000
59.48000 455.000
59.52000 412.000
59.56000 458.000
59.60000 446.000
59.64000 433.000
59.68000 445.000
59.72000 452.000
59.76000 452.000
59.80000 419.000
59.84000 447.000
59.88000 429.000
59.92000 399.000