File: XRD/53.xy
5.00000 1374.000
5.04000 1348.000
5.08000 1358.000
5.12000 1403.000
5.16000 1332.000
5.20000 1355.000
5.24000 1341.000
5.28000 1298.000
5.32000 1329.000
5.36000 1291.000
5.40000 1293.000
5.44000 1286.000
5.48000 1291.000
5.52000 1224.000
5.56000 1258.000
5.60000 1241.000
5.64000 1220.000
5.68000 1188.000
5.72000 1214.000
5.76000 1153.000
5.80000 1178.000
5.84000 1201.000
5.88000 1191.000
5.92000 1157.000
5.96000 1182.000
6.00000 1151.000
6.04000 1189.000
6.08000 1157.000
6.12000 1135.000
6.16000 1204.000
6.20000 1066.000
6.24000 1074.000
6.28000 1164.000
6.32000 1105.000
6.36000 1066.000
6.40000 1077.000
6.44000 1063.000
6.48000 1043.000
6.52000 1045.000
6.56000 1074.000
6.60000 1021.000
6.64000 1023.000
6.68000 1039.000
6.72000 1023.000
6.76000 1030.000
6.80000 1058.000
6.84000 1035.000
6.88000 1010.000
6.92000 971.000
6.96000 1001.000
7.00000 1004.000
7.04000 995.000
7.08000 1036.000
7.12000 967.000
7.16000 938.000
7.20000 962.000
7.24000 967.000
7.28000 941.000
7.32000 915.000
7.36000 965.000
7.40000 937.000
7.44000 984.000
7.48000 1002.000
7.52000 950.000
7.56000 948.000
7.60000 950.000
7.64000 939.000
7.68000 932.000
7.72000 938.000
7.76000 964.000
7.80000 972.000
7.84000 878.000
7.88000 924.000
7.92000 855.000
7.96000 957.000
8.00000 967.000
8.04000 980.000
8.08000 1003.000
8.12000 961.000
8.16000 978.000
8.20000 974.000
8.24000 1088.000
8.28000 1148.000
8.32000 1289.000
8.36000 1354.000
8.40000 1491.000
8.44000 1520.000
8.48000 1441.000
8.52000 1336.000
8.56000 1071.000
8.60000 979.000
8.64000 897.000
8.68000 928.000
8.72000 829.000
8.76000 835.000
8.80000 875.000
8.84000 815.000
8.88000 813.000
8.92000 804.000
8.96000 829.000
9.00000 767.000
9.04000 809.000
9.08000 784.000
9.12000 807.000
9.16000 773.000
9.20000 712.000
9.24000 722.000
9.28000 774.000
9.32000 780.000
9.36000 763.000
9.40000 764.000
9.44000 737.000
9.48000 686.000
9.52000 744.000
9.56000 800.000
9.60000 721.000
9.64000 720.000
9.68000 741.000
9.72000 761.000
9.76000 726.000
9.80000 698.000
9.84000 715.000
9.88000 748.000
9.92000 748.000
9.96000 714.000
10.00000 714.000
10.04000 696.000
10.08000 782.000
10.12000 685.000
10.16000 750.000
10.20000 714.000
10.24000 711.000
10.28000 740.000
10.32000 741.000
10.36000 654.000
10.40000 709.000
10.44000 696.000
10.48000 668.000
10.52000 697.000
10.56000 724.000
10.60000 690.000
10.64000 676.000
10.68000 695.000
10.72000 678.000
10.76000 720.000
10.80000 736.000
10.84000 654.000
10.88000 688.000
10.92000 701.000
10.96000 679.000
11.00000 692.000
11.04000 683.000
11.08000 674.000
11.12000 703.000
11.16000 715.000
11.20000 660.000
11.24000 703.000
11.28000 689.000
11.32000 653.000
11.36000 676.000
11.40000 625.000
11.44000 701.000
11.48000 676.000
11.52000 738.000
11.56000 649.000
11.60000 681.000
11.64000 666.000
11.68000 686.000
11.72000 708.000
11.76000 719.000
11.80000 686.000
11.84000 656.000
11.88000 742.000
11.92000 733.000
11.96000 725.000
12.00000 803.000
12.04000 723.000
12.08000 841.000
12.12000 825.000
12.16000 861.000
12.20000 840.000
12.24000 878.000
12.28000 811.000
12.32000 790.000
12.36000 769.000
12.40000 787.000
12.44000 739.000
12.48000 774.000
12.52000 785.000
12.56000 818.000
12.60000 871.000
12.64000 911.000
12.68000 955.000
12.72000 1091.000
12.76000 1261.000
12.80000 1447.000
12.84000 1543.000
12.88000 1694.000
12.92000 1834.000
12.96000 1690.000
13.00000 1519.000
13.04000 1277.000
13.08000 1029.000
13.12000 915.000
13.16000 904.000
13.20000 745.000
13.24000 756.000
13.28000 679.000
13.32000 687.000
13.36000 619.000
13.40000 680.000
13.44000 661.000
13.48000 603.000
13.52000 627.000
13.56000 658.000
13.60000 633.000
13.64000 643.000
13.68000 654.000
13.72000 620.000
13.76000 614.000
13.80000 627.000
13.84000 627.000
13.88000 647.000
13.92000 582.000
13.96000 656.000
14.00000 635.000
14.04000 602.000
14.08000 629.000
14.12000 596.000
14.16000 599.000
14.20000 608.000
14.24000 653.000
14.28000 577.000
14.32000 609.000
14.36000 647.000
14.40000 621.000
14.44000 643.000
14.48000 643.000
14.52000 583.000
14.56000 657.000
14.60000 625.000
14.64000 612.000
14.68000 635.000
14.72000 665.000
14.76000 670.000
14.80000 652.000
14.84000 680.000
14.88000 644.000
14.92000 626.000
14.96000 642.000
15.00000 693.000
15.04000 660.000
15.08000 650.000
15.12000 649.000
15.16000 657.000
15.20000 613.000
15.24000 636.000
15.28000 648.000
15.32000 638.000
15.36000 627.000
15.40000 615.000
15.44000 649.000
15.48000 638.000
15.52000 619.000
15.56000 629.000
15.60000 644.000
15.64000 661.000
15.68000 673.000
15.72000 629.000
15.76000 609.000
15.80000 689.000
15.84000 653.000
15.88000 624.000
15.92000 618.000
15.96000 685.000
16.00000 699.000
16.04000 672.000
16.08000 665.000
16.12000 654.000
16.16000 651.000
16.20000 659.000
16.24000 658.000
16.28000 670.000
16.32000 684.000
16.36000 686.000
16.40000 716.000
16.44000 673.000
16.48000 735.000
16.52000 759.000
16.56000 769.000
16.60000 742.000
16.64000 758.000
16.68000 795.000
16.72000 805.000
16.76000 858.000
16.80000 932.000
16.84000 1065.000
16.88000 1124.000
16.92000 1167.000
16.96000 1114.000
17.00000 1056.000
17.04000 949.000
17.08000 879.000
17.12000 793.000
17.16000 705.000
17.20000 717.000
17.24000 767.000
17.28000 748.000
17.32000 725.000
17.36000 705.000
17.40000 753.000
17.44000 774.000
17.48000 718.000
17.52000 726.000
17.56000 764.000
17.60000 730.000
17.64000 759.000
17.68000 771.000
17.72000 759.000
17.76000 737.000
17.80000 747.000
17.84000 708.000
17.88000 745.000
17.92000 724.000
17.96000 742.000
18.00000 769.000
18.04000 771.000
18.08000 791.000
18.12000 786.000
18.16000 738.000
18.20000 770.000
18.24000 755.000
18.28000 792.000
18.32000 771.000
18.36000 803.000
18.40000 773.000
18.44000 791.000
18.48000 798.000
18.52000 801.000
18.56000 790.000
18.60000 817.000
18.64000 796.000
18.68000 792.000
18.72000 801.000
18.76000 826.000
18.80000 817.000
18.84000 796.000
18.88000 824.000
18.92000 872.000
18.96000 804.000
19.00000 807.000
19.04000 816.000
19.08000 832.000
19.12000 821.000
19.16000 832.000
19.20000 847.000
19.24000 819.000
19.28000 838.000
19.32000 906.000
19.36000 835.000
19.40000 855.000
19.44000 910.000
19.48000 865.000
19.52000 857.000
19.56000 885.000
19.60000 814.000
19.64000 887.000
19.68000 889.000
19.72000 881.000
19.76000 878.000
19.80000 844.000
19.84000 867.000
19.88000 923.000
19.92000 935.000
19.96000 910.000
20.00000 980.000
20.04000 920.000
20.08000 932.000
20.12000 910.000
20.16000 902.000
20.20000 944.000
20.24000 905.000
20.28000 931.000
20.32000 935.000
20.36000 940.000
20.40000 987.000
20.44000 957.000
20.48000 986.000
20.52000 988.000
20.56000 959.000
20.60000 956.000
20.64000 885.000
20.68000 987.000
20.72000 950.000
20.76000 1001.000
20.80000 967.000
20.84000 1015.000
20.88000 968.000
20.92000 1050.000
20.96000 1080.000
21.00000 1069.000
21.04000 1102.000
21.08000 1041.000
21.12000 1035.000
21.16000 1061.000
21.20000 1091.000
21.24000 1121.000
21.28000 1084.000
21.32000 1054.000
21.36000 1111.000
21.40000 1035.000
21.44000 1048.000
21.48000 1052.000
21.52000 978.000
21.56000 1082.000
21.60000 1043.000
21.64000 1011.000
21.68000 1024.000
21.72000 1036.000
21.76000 1010.000
21.80000 1080.000
21.84000 988.000
21.88000 1007.000
21.92000 987.000
21.96000 1110.000
22.00000 1087.000
22.04000 1078.000
22.08000 1100.000
22.12000 1047.000
22.16000 998.000
22.20000 1045.000
22.24000 1074.000
22.28000 1058.000
22.32000 1063.000
22.36000 1056.000
22.40000 1043.000
22.44000 1052.000
22.48000 1096.000
22.52000 1080.000
22.56000 1069.000
22.60000 1078.000
22.64000 1065.000
22.68000 1100.000
22.72000 1139.000
22.76000 1097.000
22.80000 1105.000
22.84000 1127.000
22.88000 1102.000
22.92000 1083.000
22.96000 1063.000
23.00000 1148.000
23.04000 1138.000
23.08000 1075.000
23.12000 1093.000
23.16000 1127.000
23.20000 1144.000
23.24000 1132.000
23.28000 1143.000
23.32000 1169.000
23.36000 1076.000
23.40000 1137.000
23.44000 1155.000
23.48000 1183.000
23.52000 1173.000
23.56000 1152.000
23.60000 1140.000
23.64000 1164.000
23.68000 1145.000
23.72000 1098.000
23.76000 1141.000
23.80000 1139.000
23.84000 1107.000
23.88000 1136.000
23.92000 1094.000
23.96000 1164.000
24.00000 1177.000
24.04000 1203.000
24.08000 1162.000
24.12000 1183.000
24.16000 1217.000
24.20000 1221.000
24.24000 1223.000
24.28000 1268.000
24.32000 1272.000
24.36000 1328.000
24.40000 1373.000
24.44000 1310.000
24.48000 1360.000
24.52000 1443.000
24.56000 1408.000
24.60000 1390.000
24.64000 1424.000
24.68000 1376.000
24.72000 1422.000
24.76000 1336.000
24.80000 1458.000
24.84000 1495.000
24.88000 1598.000
24.92000 1525.000
24.96000 1619.000
25.00000 1672.000
25.04000 1708.000
25.08000 1808.000
25.12000 2024.000
25.16000 2146.000
25.20000 2533.000
25.24000 3069.000
25.28000 3770.000
25.32000 4622.000
25.36000 6011.000
25.40000 7806.000
25.44000 9526.000
25.48000 10821.000
25.52000 11053.000
25.56000 10196.000
25.60000 8251.000
25.64000 6545.000
25.68000 4940.000
25.72000 3995.000
25.76000 3493.000
25.80000 3178.000
25.84000 3326.000
25.88000 3523.000
25.92000 3827.000
25.96000 4236.000
26.00000 4479.000
26.04000 4519.000
26.08000 4096.000
26.12000 3720.000
26.16000 3239.000
26.20000 2666.000
26.24000 2261.000
26.28000 1949.000
26.32000 1778.000
26.36000 1554.000
26.40000 1583.000
26.44000 1435.000
26.48000 1403.000
26.52000 1361.000
26.56000 1332.000
26.60000 1288.000
26.64000 1250.000
26.68000 1251.000
26.72000 1243.000
26.76000 1223.000
26.80000 1265.000
26.84000 1308.000
26.88000 1202.000
26.92000 1275.000
26.96000 1218.000
27.00000 1255.000
27.04000 1264.000
27.08000 1322.000
27.12000 1310.000
27.16000 1363.000
27.20000 1328.000
27.24000 1460.000
27.28000 1427.000
27.32000 1480.000
27.36000 1612.000
27.40000 1634.000
27.44000 1899.000
27.48000 1946.000
27.52000 2270.000
27.56000 2515.000
27.60000 2720.000
27.64000 2794.000
27.68000 2984.000
27.72000 2836.000
27.76000 2821.000
27.80000 2580.000
27.84000 2357.000
27.88000 2201.000
27.92000 1983.000
27.96000 1722.000
28.00000 1552.000
28.04000 1443.000
28.08000 1310.000
28.12000 1305.000
28.16000 1227.000
28.20000 1213.000
28.24000 1258.000
28.28000 1174.000
28.32000 1161.000
28.36000 1201.000
28.40000 1119.000
28.44000 1131.000
28.48000 1128.000
28.52000 1076.000
28.56000 1050.000
28.60000 1089.000
28.64000 1124.000
28.68000 1081.000
28.72000 1046.000
28.76000 1110.000
28.80000 1026.000
28.84000 1046.000
28.88000 1049.000
28.92000 1025.000
28.96000 1034.000
29.00000 1081.000
29.04000 1013.000
29.08000 998.000
29.12000 1074.000
29.16000 986.000
29.20000 1048.000
29.24000 1029.000
29.28000 1078.000
29.32000 991.000
29.36000 1065.000
29.40000 1061.000
29.44000 1027.000
29.48000 1117.000
29.52000 1108.000
29.56000 1063.000
29.60000 1147.000
29.64000 1233.000
29.68000 1245.000
29.72000 1233.000
29.76000 1361.000
29.80000 1467.000
29.84000 1557.000
29.88000 1583.000
29.92000 1624.000
29.96000 1690.000
30.00000 1610.000
30.04000 1537.000
30.08000 1514.000
30.12000 1413.000
30.16000 1321.000
30.20000 1240.000
30.24000 1218.000
30.28000 1120.000
30.32000 1107.000
30.36000 1049.000
30.40000 1019.000
30.44000 1014.000
30.48000 1052.000
30.52000 974.000
30.56000 1040.000
30.60000 948.000
30.64000 987.000
30.68000 906.000
30.72000 1012.000
30.76000 938.000
30.80000 935.000
30.84000 937.000
30.88000 950.000
30.92000 908.000
30.96000 866.000
31.00000 937.000
31.04000 908.000
31.08000 861.000
31.12000 967.000
31.16000 945.000
31.20000 902.000
31.24000 921.000
31.28000 895.000
31.32000 901.000
31.36000 883.000
31.40000 938.000
31.44000 840.000
31.48000 924.000
31.52000 885.000
31.56000 878.000
31.60000 899.000
31.64000 891.000
31.68000 882.000
31.72000 902.000
31.76000 911.000
31.80000 910.000
31.84000 944.000
31.88000 870.000
31.92000 918.000
31.96000 911.000
32.00000 900.000
32.04000 964.000
32.08000 894.000
32.12000 899.000
32.16000 929.000
32.20000 899.000
32.24000 947.000
32.28000 943.000
32.32000 925.000
32.36000 961.000
32.40000 1050.000
32.44000 1039.000
32.48000 1075.000
32.52000 1103.000
32.56000 1103.000
32.60000 1072.000
32.64000 1136.000
32.68000 1112.000
32.72000 1121.000
32.76000 1020.000
32.80000 1022.000
32.84000 1031.000
32.88000 913.000
32.92000 977.000
32.96000 992.000
33.00000 938.000
33.04000 910.000
33.08000 928.000
33.12000 938.000
33.16000 940.000
33.20000 834.000
33.24000 876.000
33.28000 783.000
33.32000 862.000
33.36000 837.000
33.40000 803.000
33.44000 747.000
33.48000 887.000
33.52000 833.000
33.56000 801.000
33.60000 799.000
33.64000 810.000
33.68000 815.000
33.72000 792.000
33.76000 716.000
33.80000 742.000
33.84000 745.000
33.88000 732.000
33.92000 739.000
33.96000 755.000
34.00000 693.000
34.04000 750.000
34.08000 723.000
34.12000 738.000
34.16000 799.000
34.20000 781.000
34.24000 739.000
34.28000 781.000
34.32000 759.000
34.36000 686.000
34.40000 671.000
34.44000 730.000
34.48000 689.000
34.52000 702.000
34.56000 733.000
34.60000 702.000
34.64000 720.000
34.68000 693.000
34.72000 688.000
34.76000 652.000
34.80000 679.000
34.84000 719.000
34.88000 694.000
34.92000 692.000
34.96000 676.000
35.00000 670.000
35.04000 648.000
35.08000 667.000
35.12000 654.000
35.16000 648.000
35.20000 715.000
35.24000 658.000
35.28000 640.000
35.32000 683.000
35.36000 662.000
35.40000 684.000
35.44000 708.000
35.48000 651.000
35.52000 663.000
35.56000 609.000
35.60000 658.000
35.64000 612.000
35.68000 580.000
35.72000 643.000
35.76000 615.000
35.80000 631.000
35.84000 612.000
35.88000 619.000
35.92000 659.000
35.96000 622.000
36.00000 604.000
36.04000 655.000
36.08000 644.000
36.12000 596.000
36.16000 614.000
36.20000 640.000
36.24000 572.000
36.28000 623.000
36.32000 613.000
36.36000 633.000
36.40000 552.000
36.44000 638.000
36.48000 617.000
36.52000 591.000
36.56000 620.000
36.60000 579.000
36.64000 596.000
36.68000 536.000
36.72000 605.000
36.76000 592.000
36.80000 586.000
36.84000 574.000
36.88000 585.000
36.92000 586.000
36.96000 578.000
37.00000 592.000
37.04000 618.000
37.08000 583.000
37.12000 575.000
37.16000 601.000
37.20000 555.000
37.24000 593.000
37.28000 584.000
37.32000 536.000
37.36000 555.000
37.40000 569.000
37.44000 596.000
37.48000 611.000
37.52000 517.000
37.56000 584.000
37.60000 552.000
37.64000 565.000
37.68000 528.000
37.72000 545.000
37.76000 532.000
37.80000 560.000
37.84000 589.000
37.88000 585.000
37.92000 528.000
37.96000 499.000
38.00000 502.000
38.04000 530.000
38.08000 469.000
38.12000 527.000
38.16000 564.000
38.20000 531.000
38.24000 491.000
38.28000 490.000
38.32000 593.000
38.36000 562.000
38.40000 505.000
38.44000 537.000
38.48000 534.000
38.52000 489.000
38.56000 547.000
38.60000 507.000
38.64000 534.000
38.68000 515.000
38.72000 568.000
38.76000 536.000
38.80000 575.000
38.84000 560.000
38.88000 583.000
38.92000 531.000
38.96000 622.000
39.00000 579.000
39.04000 571.000
39.08000 556.000
39.12000 572.000
39.16000 584.000
39.20000 546.000
39.24000 586.000
39.28000 546.000
39.32000 559.000
39.36000 571.000
39.40000 618.000
39.44000 562.000
39.48000 559.000
39.52000 572.000
39.56000 515.000
39.60000 544.000
39.64000 525.000
39.68000 503.000
39.72000 540.000
39.76000 480.000
39.80000 564.000
39.84000 499.000
39.88000 508.000
39.92000 545.000
39.96000 521.000
40.00000 503.000
40.04000 511.000
40.08000 493.000
40.12000 521.000
40.16000 524.000
40.20000 488.000
40.24000 537.000
40.28000 534.000
40.32000 494.000
40.36000 547.000
40.40000 488.000
40.44000 523.000
40.48000 545.000
40.52000 445.000
40.56000 572.000
40.60000 506.000
40.64000 492.000
40.68000 514.000
40.72000 496.000
40.76000 530.000
40.80000 514.000
40.84000 530.000
40.88000 520.000
40.92000 515.000
40.96000 514.000
41.00000 534.000
41.04000 552.000
41.08000 524.000
41.12000 522.000
41.16000 583.000
41.20000 589.000
41.24000 524.000
41.28000 498.000
41.32000 523.000
41.36000 517.000
41.40000 489.000
41.44000 523.000
41.48000 507.000
41.52000 495.000
41.56000 500.000
41.60000 529.000
41.64000 565.000
41.68000 524.000
41.72000 547.000
41.76000 503.000
41.80000 550.000
41.84000 527.000
41.88000 523.000
41.92000 523.000
41.96000 538.000
42.00000 529.000
42.04000 505.000
42.08000 498.000
42.12000 548.000
42.16000 531.000
42.20000 520.000
42.24000 537.000
42.28000 586.000
42.32000 563.000
42.36000 590.000
42.40000 623.000
42.44000 612.000
42.48000 626.000
42.52000 637.000
42.56000 603.000
42.60000 588.000
42.64000 612.000
42.68000 645.000
42.72000 583.000
42.76000 650.000
42.80000 610.000
42.84000 549.000
42.88000 615.000
42.92000 635.000
42.96000 621.000
43.00000 656.000
43.04000 761.000
43.08000 711.000
43.12000 844.000
43.16000 789.000
43.20000 801.000
43.24000 869.000
43.28000 811.000
43.32000 819.000
43.36000 789.000
43.40000 693.000
43.44000 726.000
43.48000 636.000
43.52000 614.000
43.56000 612.000
43.60000 612.000
43.64000 588.000
43.68000 547.000
43.72000 538.000
43.76000 529.000
43.80000 505.000
43.84000 519.000
43.88000 484.000
43.92000 542.000
43.96000 472.000
44.00000 499.000
44.04000 524.000
44.08000 514.000
44.12000 509.000
44.16000 474.000
44.20000 504.000
44.24000 482.000
44.28000 574.000
44.32000 496.000
44.36000 524.000
44.40000 493.000
44.44000 482.000
44.48000 486.000
44.52000 520.000
44.56000 498.000
44.60000 475.000
44.64000 489.000
44.68000 482.000
44.72000 503.000
44.76000 486.000
44.80000 549.000
44.84000 568.000
44.88000 512.000
44.92000 538.000
44.96000 484.000
45.00000 496.000
45.04000 523.000
45.08000 498.000
45.12000 505.000
45.16000 509.000
45.20000 522.000
45.24000 540.000
45.28000 518.000
45.32000 499.000
45.36000 532.000
45.40000 482.000
45.44000 523.000
45.48000 533.000
45.52000 490.000
45.56000 494.000
45.60000 502.000
45.64000 489.000
45.68000 539.000
45.72000 514.000
45.76000 518.000
45.80000 518.000
45.84000 527.000
45.88000 491.000
45.92000 503.000
45.96000 533.000
46.00000 543.000
46.04000 575.000
46.08000 562.000
46.12000 511.000
46.16000 551.000
46.20000 573.000
46.24000 584.000
46.28000 585.000
46.32000 610.000
46.36000 591.000
46.40000 568.000
46.44000 572.000
46.48000 573.000
46.52000 555.000
46.56000 542.000
46.60000 535.000
46.64000 520.000
46.68000 534.000
46.72000 508.000
46.76000 504.000
46.80000 510.000
46.84000 505.000
46.88000 480.000
46.92000 493.000
46.96000 493.000
47.00000 485.000
47.04000 476.000
47.08000 483.000
47.12000 484.000
47.16000 459.000
47.20000 488.000
47.24000 436.000
47.28000 442.000
47.32000 457.000
47.36000 457.000
47.40000 482.000
47.44000 438.000
47.48000 485.000
47.52000 459.000
47.56000 445.000
47.60000 479.000
47.64000 485.000
47.68000 428.000
47.72000 430.000
47.76000 443.000
47.80000 461.000
47.84000 474.000
47.88000 466.000
47.92000 488.000
47.96000 490.000
48.00000 433.000
48.04000 483.000
48.08000 481.000
48.12000 483.000
48.16000 462.000
48.20000 452.000
48.24000 459.000
48.28000 478.000
48.32000 430.000
48.36000 487.000
48.40000 497.000
48.44000 496.000
48.48000 461.000
48.52000 453.000
48.56000 480.000
48.60000 460.000
48.64000 465.000
48.68000 471.000
48.72000 472.000
48.76000 439.000
48.80000 459.000
48.84000 493.000
48.88000 507.000
48.92000 466.000
48.96000 473.000
49.00000 450.000
49.04000 447.000
49.08000 480.000
49.12000 433.000
49.16000 482.000
49.20000 489.000
49.24000 478.000
49.28000 449.000
49.32000 453.000
49.36000 477.000
49.40000 456.000
49.44000 447.000
49.48000 445.000
49.52000 469.000
49.56000 469.000
49.60000 464.000
49.64000 445.000
49.68000 477.000
49.72000 442.000
49.76000 472.000
49.80000 421.000
49.84000 455.000
49.88000 460.000
49.92000 479.000
49.96000 469.000
50.00000 439.000
50.04000 478.000
50.08000 477.000
50.12000 452.000
50.16000 424.000
50.20000 477.000
50.24000 457.000
50.28000 469.000
50.32000 509.000
50.36000 529.000
50.40000 486.000
50.44000 477.000
50.48000 492.000
50.52000 543.000
50.56000 511.000
50.60000 519.000
50.64000 513.000
50.68000 516.000
50.72000 538.000
50.76000 548.000
50.80000 563.000
50.84000 580.000
50.88000 568.000
50.92000 606.000
50.96000 559.000
51.00000 580.000
51.04000 571.000
51.08000 552.000
51.12000 566.000
51.16000 509.000
51.20000 532.000
51.24000 520.000
51.28000 489.000
51.32000 506.000
51.36000 514.000
51.40000 496.000
51.44000 515.000
51.48000 507.000
51.52000 481.000
51.56000 455.000
51.60000 462.000
51.64000 487.000
51.68000 476.000
51.72000 467.000
51.76000 461.000
51.80000 487.000
51.84000 507.000
51.88000 551.000
51.92000 508.000
51.96000 569.000
52.00000 657.000
52.04000 647.000
52.08000 680.000
52.12000 725.000
52.16000 738.000
52.20000 829.000
52.24000 883.000
52.28000 1015.000
52.32000 1113.000
52.36000 1183.000
52.40000 1166.000
52.44000 1181.000
52.48000 1118.000
52.52000 1018.000
52.56000 928.000
52.60000 853.000
52.64000 779.000
52.68000 664.000
52.72000 639.000
52.76000 653.000
52.80000 614.000
52.84000 530.000
52.88000 496.000
52.92000 490.000
52.96000 493.000
53.00000 499.000
53.04000 474.000
53.08000 512.000
53.12000 494.000
53.16000 511.000
53.20000 544.000
53.24000 505.000
53.28000 552.000
53.32000 543.000
53.36000 555.000
53.40000 563.000
53.44000 544.000
53.48000 592.000
53.52000 557.000
53.56000 576.000
53.60000 550.000
53.64000 573.000
53.68000 558.000
53.72000 563.000
53.76000 537.000
53.80000 529.000
53.84000 511.000
53.88000 466.000
53.92000 479.000
53.96000 453.000
54.00000 455.000
54.04000 429.000
54.08000 437.000
54.12000 475.000
54.16000 478.000
54.20000 382.000
54.24000 438.000
54.28000 425.000
54.32000 451.000
54.36000 443.000
54.40000 476.000
54.44000 472.000
54.48000 446.000
54.52000 420.000
54.56000 418.000
54.60000 428.000
54.64000 451.000
54.68000 446.000
54.72000 426.000
54.76000 472.000
54.80000 453.000
54.84000 435.000
54.88000 452.000
54.92000 457.000
54.96000 481.000
55.00000 448.000
55.04000 478.000
55.08000 471.000
55.12000 456.000
55.16000 529.000
55.20000 467.000
55.24000 499.000
55.28000 498.000
55.32000 496.000
55.36000 460.000
55.40000 480.000
55.44000 472.000
55.48000 522.000
55.52000 460.000
55.56000 439.000
55.60000 481.000
55.64000 454.000
55.68000 460.000
55.72000 429.000
55.76000 457.000
55.80000 447.000
55.84000 427.000
55.88000 445.000
55.92000 447.000
55.96000 468.000
56.00000 476.000
56.04000 411.000
56.08000 445.000
56.12000 418.000
56.16000 415.000
56.20000 440.000
56.24000 455.000
56.28000 417.000
56.32000 371.000
56.36000 452.000
56.40000 442.000
56.44000 423.000
56.48000 461.000
56.52000 420.000
56.56000 436.000
56.60000 420.000
56.64000 469.000
56.68000 451.000
56.72000 447.000
56.76000 433.000
56.80000 433.000
56.84000 443.000
56.88000 443.000
56.92000 455.000
56.96000 474.000
57.00000 408.000
57.04000 433.000
57.08000 477.000
57.12000 456.000
57.16000 408.000
57.20000 455.000
57.24000 446.000
57.28000 437.000
57.32000 401.000
57.36000 447.000
57.40000 414.000
57.44000 403.000
57.48000 461.000
57.52000 488.000
57.56000 421.000
57.60000 435.000
57.64000 433.000
57.68000 475.000
57.72000 404.000
57.76000 393.000
57.80000 375.000
57.84000 395.000
57.88000 437.000
57.92000 437.000
57.96000 418.000
58.00000 438.000
58.04000 412.000
58.08000 435.000
58.12000 439.000
58.16000 439.000
58.20000 434.000
58.24000 439.000
58.28000 433.000
58.32000 403.000
58.36000 438.000
58.40000 430.000
58.44000 415.000
58.48000 427.000
58.52000 441.000
58.56000 428.000
58.60000 405.000
58.64000 401.000
58.68000 467.000
58.72000 432.000
58.76000 387.000
58.80000 463.000
58.84000 435.000
58.88000 427.000
58.92000 434.000
58.96000 415.000
59.00000 423.000
59.04000 443.000
59.08000 404.000
59.12000 418.000
59.16000 406.000
59.20000 442.000
59.24000 405.000
59.28000 459.000
59.32000 466.000
59.36000 439.000
59.40000 453.000
59.44000 419.000
59.48000 446.000
59.52000 387.000
59.56000 415.000
59.60000 426.000
59.64000 412.000
59.68000 412.000
59.72000 456.000
59.76000 459.000
59.80000 421.000
59.84000 429.000
59.88000 437.000
59.92000 434.000