File: XRD/54.xy
5.00000 1554.000
5.04000 1475.000
5.08000 1466.000
5.12000 1501.000
5.16000 1468.000
5.20000 1442.000
5.24000 1408.000
5.28000 1462.000
5.32000 1444.000
5.36000 1347.000
5.40000 1285.000
5.44000 1275.000
5.48000 1352.000
5.52000 1310.000
5.56000 1341.000
5.60000 1344.000
5.64000 1337.000
5.68000 1358.000
5.72000 1342.000
5.76000 1306.000
5.80000 1273.000
5.84000 1297.000
5.88000 1282.000
5.92000 1295.000
5.96000 1236.000
6.00000 1227.000
6.04000 1161.000
6.08000 1265.000
6.12000 1223.000
6.16000 1147.000
6.20000 1194.000
6.24000 1189.000
6.28000 1211.000
6.32000 1117.000
6.36000 1118.000
6.40000 1213.000
6.44000 1230.000
6.48000 1128.000
6.52000 1124.000
6.56000 1137.000
6.60000 1073.000
6.64000 1051.000
6.68000 1124.000
6.72000 1124.000
6.76000 1087.000
6.80000 1100.000
6.84000 1119.000
6.88000 1118.000
6.92000 993.000
6.96000 1064.000
7.00000 1038.000
7.04000 1077.000
7.08000 1016.000
7.12000 1094.000
7.16000 1068.000
7.20000 991.000
7.24000 1019.000
7.28000 970.000
7.32000 1033.000
7.36000 1069.000
7.40000 997.000
7.44000 1022.000
7.48000 983.000
7.52000 1003.000
7.56000 1004.000
7.60000 992.000
7.64000 940.000
7.68000 945.000
7.72000 948.000
7.76000 993.000
7.80000 1085.000
7.84000 1048.000
7.88000 949.000
7.92000 1008.000
7.96000 1007.000
8.00000 973.000
8.04000 1011.000
8.08000 995.000
8.12000 1064.000
8.16000 1109.000
8.20000 1157.000
8.24000 1255.000
8.28000 1256.000
8.32000 1423.000
8.36000 1385.000
8.40000 1347.000
8.44000 1404.000
8.48000 1330.000
8.52000 1301.000
8.56000 1275.000
8.60000 1059.000
8.64000 1019.000
8.68000 994.000
8.72000 965.000
8.76000 870.000
8.80000 944.000
8.84000 896.000
8.88000 822.000
8.92000 794.000
8.96000 872.000
9.00000 845.000
9.04000 801.000
9.08000 822.000
9.12000 797.000
9.16000 796.000
9.20000 818.000
9.24000 805.000
9.28000 812.000
9.32000 810.000
9.36000 788.000
9.40000 783.000
9.44000 830.000
9.48000 764.000
9.52000 818.000
9.56000 784.000
9.60000 802.000
9.64000 797.000
9.68000 788.000
9.72000 737.000
9.76000 788.000
9.80000 779.000
9.84000 764.000
9.88000 782.000
9.92000 782.000
9.96000 809.000
10.00000 770.000
10.04000 755.000
10.08000 691.000
10.12000 746.000
10.16000 732.000
10.20000 772.000
10.24000 743.000
10.28000 802.000
10.32000 766.000
10.36000 715.000
10.40000 740.000
10.44000 751.000
10.48000 751.000
10.52000 731.000
10.56000 759.000
10.60000 756.000
10.64000 723.000
10.68000 699.000
10.72000 752.000
10.76000 719.000
10.80000 726.000
10.84000 680.000
10.88000 684.000
10.92000 671.000
10.96000 721.000
11.00000 703.000
11.04000 730.000
11.08000 682.000
11.12000 673.000
11.16000 713.000
11.20000 681.000
11.24000 686.000
11.28000 675.000
11.32000 716.000
11.36000 696.000
11.40000 673.000
11.44000 725.000
11.48000 671.000
11.52000 714.000
11.56000 699.000
11.60000 698.000
11.64000 665.000
11.68000 695.000
11.72000 690.000
11.76000 791.000
11.80000 765.000
11.84000 728.000
11.88000 747.000
11.92000 781.000
11.96000 778.000
12.00000 770.000
12.04000 831.000
12.08000 804.000
12.12000 854.000
12.16000 816.000
12.20000 867.000
12.24000 791.000
12.28000 788.000
12.32000 809.000
12.36000 727.000
12.40000 841.000
12.44000 767.000
12.48000 801.000
12.52000 720.000
12.56000 837.000
12.60000 804.000
12.64000 795.000
12.68000 831.000
12.72000 906.000
12.76000 933.000
12.80000 926.000
12.84000 979.000
12.88000 977.000
12.92000 1002.000
12.96000 927.000
13.00000 917.000
13.04000 847.000
13.08000 783.000
13.12000 735.000
13.16000 749.000
13.20000 684.000
13.24000 739.000
13.28000 700.000
13.32000 669.000
13.36000 691.000
13.40000 688.000
13.44000 708.000
13.48000 681.000
13.52000 670.000
13.56000 703.000
13.60000 691.000
13.64000 650.000
13.68000 680.000
13.72000 683.000
13.76000 688.000
13.80000 698.000
13.84000 655.000
13.88000 672.000
13.92000 673.000
13.96000 722.000
14.00000 733.000
14.04000 665.000
14.08000 629.000
14.12000 640.000
14.16000 743.000
14.20000 670.000
14.24000 673.000
14.28000 729.000
14.32000 697.000
14.36000 672.000
14.40000 722.000
14.44000 679.000
14.48000 648.000
14.52000 686.000
14.56000 683.000
14.60000 669.000
14.64000 687.000
14.68000 699.000
14.72000 723.000
14.76000 740.000
14.80000 763.000
14.84000 700.000
14.88000 729.000
14.92000 677.000
14.96000 684.000
15.00000 704.000
15.04000 721.000
15.08000 702.000
15.12000 720.000
15.16000 722.000
15.20000 759.000
15.24000 698.000
15.28000 695.000
15.32000 679.000
15.36000 738.000
15.40000 666.000
15.44000 741.000
15.48000 728.000
15.52000 764.000
15.56000 765.000
15.60000 680.000
15.64000 667.000
15.68000 739.000
15.72000 719.000
15.76000 768.000
15.80000 746.000
15.84000 748.000
15.88000 676.000
15.92000 722.000
15.96000 718.000
16.00000 687.000
16.04000 749.000
16.08000 778.000
16.12000 717.000
16.16000 733.000
16.20000 772.000
16.24000 802.000
16.28000 800.000
16.32000 813.000
16.36000 815.000
16.40000 822.000
16.44000 852.000
16.48000 829.000
16.52000 882.000
16.56000 927.000
16.60000 1001.000
16.64000 1040.000
16.68000 1032.000
16.72000 1128.000
16.76000 1214.000
16.80000 1247.000
16.84000 1329.000
16.88000 1339.000
16.92000 1203.000
16.96000 1167.000
17.00000 1114.000
17.04000 1071.000
17.08000 1016.000
17.12000 922.000
17.16000 870.000
17.20000 881.000
17.24000 838.000
17.28000 869.000
17.32000 878.000
17.36000 868.000
17.40000 795.000
17.44000 862.000
17.48000 857.000
17.52000 777.000
17.56000 797.000
17.60000 817.000
17.64000 878.000
17.68000 863.000
17.72000 830.000
17.76000 887.000
17.80000 846.000
17.84000 838.000
17.88000 836.000
17.92000 897.000
17.96000 867.000
18.00000 927.000
18.04000 840.000
18.08000 906.000
18.12000 865.000
18.16000 868.000
18.20000 866.000
18.24000 924.000
18.28000 955.000
18.32000 887.000
18.36000 831.000
18.40000 891.000
18.44000 877.000
18.48000 864.000
18.52000 892.000
18.56000 863.000
18.60000 930.000
18.64000 899.000
18.68000 885.000
18.72000 941.000
18.76000 878.000
18.80000 970.000
18.84000 945.000
18.88000 961.000
18.92000 984.000
18.96000 938.000
19.00000 924.000
19.04000 988.000
19.08000 952.000
19.12000 954.000
19.16000 905.000
19.20000 989.000
19.24000 957.000
19.28000 957.000
19.32000 971.000
19.36000 1017.000
19.40000 966.000
19.44000 1001.000
19.48000 989.000
19.52000 1020.000
19.56000 1008.000
19.60000 1003.000
19.64000 1005.000
19.68000 985.000
19.72000 993.000
19.76000 989.000
19.80000 1007.000
19.84000 1006.000
19.88000 1052.000
19.92000 1021.000
19.96000 1019.000
20.00000 1046.000
20.04000 1038.000
20.08000 1075.000
20.12000 1036.000
20.16000 1014.000
20.20000 1061.000
20.24000 1099.000
20.28000 1119.000
20.32000 1072.000
20.36000 1185.000
20.40000 1139.000
20.44000 1057.000
20.48000 1089.000
20.52000 1098.000
20.56000 1087.000
20.60000 1129.000
20.64000 1167.000
20.68000 1115.000
20.72000 1224.000
20.76000 1100.000
20.80000 1144.000
20.84000 1170.000
20.88000 1203.000
20.92000 1208.000
20.96000 1186.000
21.00000 1203.000
21.04000 1188.000
21.08000 1218.000
21.12000 1190.000
21.16000 1296.000
21.20000 1329.000
21.24000 1217.000
21.28000 1299.000
21.32000 1254.000
21.36000 1198.000
21.40000 1174.000
21.44000 1216.000
21.48000 1249.000
21.52000 1132.000
21.56000 1234.000
21.60000 1177.000
21.64000 1161.000
21.68000 1151.000
21.72000 1174.000
21.76000 1216.000
21.80000 1185.000
21.84000 1179.000
21.88000 1248.000
21.92000 1250.000
21.96000 1211.000
22.00000 1187.000
22.04000 1286.000
22.08000 1168.000
22.12000 1218.000
22.16000 1235.000
22.20000 1190.000
22.24000 1271.000
22.28000 1232.000
22.32000 1287.000
22.36000 1275.000
22.40000 1262.000
22.44000 1278.000
22.48000 1226.000
22.52000 1268.000
22.56000 1276.000
22.60000 1271.000
22.64000 1302.000
22.68000 1319.000
22.72000 1300.000
22.76000 1303.000
22.80000 1247.000
22.84000 1317.000
22.88000 1324.000
22.92000 1298.000
22.96000 1282.000
23.00000 1305.000
23.04000 1256.000
23.08000 1301.000
23.12000 1312.000
23.16000 1272.000
23.20000 1233.000
23.24000 1306.000
23.28000 1267.000
23.32000 1331.000
23.36000 1352.000
23.40000 1276.000
23.44000 1308.000
23.48000 1325.000
23.52000 1357.000
23.56000 1274.000
23.60000 1293.000
23.64000 1310.000
23.68000 1306.000
23.72000 1327.000
23.76000 1325.000
23.80000 1341.000
23.84000 1291.000
23.88000 1370.000
23.92000 1337.000
23.96000 1363.000
24.00000 1341.000
24.04000 1365.000
24.08000 1339.000
24.12000 1441.000
24.16000 1399.000
24.20000 1452.000
24.24000 1399.000
24.28000 1456.000
24.32000 1490.000
24.36000 1479.000
24.40000 1463.000
24.44000 1496.000
24.48000 1437.000
24.52000 1447.000
24.56000 1514.000
24.60000 1574.000
24.64000 1487.000
24.68000 1482.000
24.72000 1414.000
24.76000 1421.000
24.80000 1528.000
24.84000 1556.000
24.88000 1571.000
24.92000 1630.000
24.96000 1719.000
25.00000 1853.000
25.04000 1919.000
25.08000 2031.000
25.12000 2322.000
25.16000 2599.000
25.20000 2855.000
25.24000 3105.000
25.28000 3505.000
25.32000 3954.000
25.36000 4215.000
25.40000 4458.000
25.44000 4454.000
25.48000 4292.000
25.52000 3895.000
25.56000 3580.000
25.60000 3168.000
25.64000 2781.000
25.68000 2430.000
25.72000 2192.000
25.76000 1963.000
25.80000 1937.000
25.84000 1836.000
25.88000 1818.000
25.92000 1736.000
25.96000 1760.000
26.00000 1660.000
26.04000 1725.000
26.08000 1641.000
26.12000 1534.000
26.16000 1448.000
26.20000 1437.000
26.24000 1371.000
26.28000 1397.000
26.32000 1406.000
26.36000 1308.000
26.40000 1383.000
26.44000 1301.000
26.48000 1286.000
26.52000 1299.000
26.56000 1274.000
26.60000 1342.000
26.64000 1300.000
26.68000 1312.000
26.72000 1275.000
26.76000 1287.000
26.80000 1242.000
26.84000 1209.000
26.88000 1223.000
26.92000 1261.000
26.96000 1317.000
27.00000 1270.000
27.04000 1283.000
27.08000 1269.000
27.12000 1353.000
27.16000 1297.000
27.20000 1281.000
27.24000 1334.000
27.28000 1353.000
27.32000 1323.000
27.36000 1282.000
27.40000 1335.000
27.44000 1371.000
27.48000 1389.000
27.52000 1341.000
27.56000 1412.000
27.60000 1392.000
27.64000 1406.000
27.68000 1429.000
27.72000 1403.000
27.76000 1418.000
27.80000 1339.000
27.84000 1329.000
27.88000 1306.000
27.92000 1262.000
27.96000 1329.000
28.00000 1212.000
28.04000 1247.000
28.08000 1213.000
28.12000 1215.000
28.16000 1235.000
28.20000 1266.000
28.24000 1198.000
28.28000 1180.000
28.32000 1228.000
28.36000 1212.000
28.40000 1166.000
28.44000 1181.000
28.48000 1180.000
28.52000 1173.000
28.56000 1142.000
28.60000 1135.000
28.64000 1133.000
28.68000 1073.000
28.72000 1208.000
28.76000 1198.000
28.80000 1202.000
28.84000 1135.000
28.88000 1127.000
28.92000 1118.000
28.96000 1084.000
29.00000 1109.000
29.04000 1133.000
29.08000 1146.000
29.12000 1121.000
29.16000 1124.000
29.20000 1131.000
29.24000 1129.000
29.28000 1201.000
29.32000 1119.000
29.36000 1150.000
29.40000 1151.000
29.44000 1217.000
29.48000 1211.000
29.52000 1149.000
29.56000 1178.000
29.60000 1234.000
29.64000 1270.000
29.68000 1231.000
29.72000 1271.000
29.76000 1303.000
29.80000 1326.000
29.84000 1322.000
29.88000 1417.000
29.92000 1370.000
29.96000 1362.000
30.00000 1419.000
30.04000 1300.000
30.08000 1312.000
30.12000 1144.000
30.16000 1167.000
30.20000 1080.000
30.24000 1101.000
30.28000 1074.000
30.32000 1049.000
30.36000 1093.000
30.40000 1054.000
30.44000 1100.000
30.48000 1097.000
30.52000 1045.000
30.56000 1087.000
30.60000 1080.000
30.64000 1031.000
30.68000 1014.000
30.72000 1054.000
30.76000 1034.000
30.80000 1073.000
30.84000 1050.000
30.88000 1055.000
30.92000 982.000
30.96000 1006.000
31.00000 998.000
31.04000 1018.000
31.08000 1023.000
31.12000 981.000
31.16000 1035.000
31.20000 1075.000
31.24000 1000.000
31.28000 1003.000
31.32000 1020.000
31.36000 986.000
31.40000 959.000
31.44000 1003.000
31.48000 982.000
31.52000 1003.000
31.56000 1058.000
31.60000 1006.000
31.64000 971.000
31.68000 966.000
31.72000 986.000
31.76000 997.000
31.80000 928.000
31.84000 999.000
31.88000 1027.000
31.92000 955.000
31.96000 970.000
32.00000 1030.000
32.04000 985.000
32.08000 1003.000
32.12000 1013.000
32.16000 953.000
32.20000 1010.000
32.24000 995.000
32.28000 989.000
32.32000 1117.000
32.36000 1044.000
32.40000 1007.000
32.44000 1047.000
32.48000 1028.000
32.52000 1099.000
32.56000 1071.000
32.60000 1022.000
32.64000 1087.000
32.68000 1138.000
32.72000 962.000
32.76000 1041.000
32.80000 1046.000
32.84000 1004.000
32.88000 951.000
32.92000 1023.000
32.96000 964.000
33.00000 926.000
33.04000 970.000
33.08000 964.000
33.12000 955.000
33.16000 951.000
33.20000 886.000
33.24000 917.000
33.28000 929.000
33.32000 958.000
33.36000 907.000
33.40000 951.000
33.44000 916.000
33.48000 910.000
33.52000 836.000
33.56000 870.000
33.60000 858.000
33.64000 853.000
33.68000 846.000
33.72000 843.000
33.76000 826.000
33.80000 846.000
33.84000 817.000
33.88000 786.000
33.92000 795.000
33.96000 826.000
34.00000 814.000
34.04000 786.000
34.08000 849.000
34.12000 752.000
34.16000 771.000
34.20000 792.000
34.24000 741.000
34.28000 778.000
34.32000 810.000
34.36000 798.000
34.40000 754.000
34.44000 759.000
34.48000 771.000
34.52000 791.000
34.56000 772.000
34.60000 777.000
34.64000 785.000
34.68000 764.000
34.72000 740.000
34.76000 733.000
34.80000 747.000
34.84000 677.000
34.88000 772.000
34.92000 736.000
34.96000 746.000
35.00000 714.000
35.04000 716.000
35.08000 688.000
35.12000 710.000
35.16000 704.000
35.20000 709.000
35.24000 688.000
35.28000 720.000
35.32000 733.000
35.36000 647.000
35.40000 666.000
35.44000 681.000
35.48000 702.000
35.52000 730.000
35.56000 724.000
35.60000 750.000
35.64000 696.000
35.68000 672.000
35.72000 651.000
35.76000 720.000
35.80000 720.000
35.84000 705.000
35.88000 682.000
35.92000 701.000
35.96000 644.000
36.00000 654.000
36.04000 677.000
36.08000 671.000
36.12000 671.000
36.16000 673.000
36.20000 666.000
36.24000 594.000
36.28000 593.000
36.32000 642.000
36.36000 684.000
36.40000 634.000
36.44000 670.000
36.48000 634.000
36.52000 691.000
36.56000 651.000
36.60000 638.000
36.64000 630.000
36.68000 571.000
36.72000 650.000
36.76000 630.000
36.80000 672.000
36.84000 590.000
36.88000 649.000
36.92000 617.000
36.96000 593.000
37.00000 631.000
37.04000 614.000
37.08000 627.000
37.12000 639.000
37.16000 609.000
37.20000 588.000
37.24000 593.000
37.28000 631.000
37.32000 611.000
37.36000 591.000
37.40000 604.000
37.44000 616.000
37.48000 637.000
37.52000 609.000
37.56000 617.000
37.60000 611.000
37.64000 608.000
37.68000 607.000
37.72000 572.000
37.76000 562.000
37.80000 569.000
37.84000 569.000
37.88000 585.000
37.92000 564.000
37.96000 507.000
38.00000 542.000
38.04000 541.000
38.08000 577.000
38.12000 584.000
38.16000 597.000
38.20000 545.000
38.24000 568.000
38.28000 554.000
38.32000 535.000
38.36000 568.000
38.40000 546.000
38.44000 597.000
38.48000 572.000
38.52000 582.000
38.56000 578.000
38.60000 584.000
38.64000 589.000
38.68000 603.000
38.72000 559.000
38.76000 554.000
38.80000 556.000
38.84000 587.000
38.88000 604.000
38.92000 606.000
38.96000 601.000
39.00000 576.000
39.04000 584.000
39.08000 586.000
39.12000 569.000
39.16000 548.000
39.20000 591.000
39.24000 581.000
39.28000 593.000
39.32000 590.000
39.36000 537.000
39.40000 558.000
39.44000 552.000
39.48000 552.000
39.52000 547.000
39.56000 535.000
39.60000 529.000
39.64000 524.000
39.68000 526.000
39.72000 587.000
39.76000 528.000
39.80000 502.000
39.84000 585.000
39.88000 522.000
39.92000 549.000
39.96000 557.000
40.00000 520.000
40.04000 526.000
40.08000 592.000
40.12000 575.000
40.16000 615.000
40.20000 567.000
40.24000 529.000
40.28000 592.000
40.32000 570.000
40.36000 534.000
40.40000 575.000
40.44000 570.000
40.48000 542.000
40.52000 517.000
40.56000 508.000
40.60000 536.000
40.64000 579.000
40.68000 518.000
40.72000 539.000
40.76000 549.000
40.80000 563.000
40.84000 547.000
40.88000 598.000
40.92000 529.000
40.96000 552.000
41.00000 516.000
41.04000 552.000
41.08000 543.000
41.12000 551.000
41.16000 537.000
41.20000 538.000
41.24000 504.000
41.28000 550.000
41.32000 553.000
41.36000 569.000
41.40000 535.000
41.44000 526.000
41.48000 538.000
41.52000 556.000
41.56000 483.000
41.60000 524.000
41.64000 521.000
41.68000 565.000
41.72000 539.000
41.76000 530.000
41.80000 533.000
41.84000 549.000
41.88000 528.000
41.92000 513.000
41.96000 548.000
42.00000 543.000
42.04000 557.000
42.08000 552.000
42.12000 520.000
42.16000 563.000
42.20000 583.000
42.24000 607.000
42.28000 523.000
42.32000 592.000
42.36000 643.000
42.40000 639.000
42.44000 629.000
42.48000 617.000
42.52000 598.000
42.56000 603.000
42.60000 614.000
42.64000 642.000
42.68000 594.000
42.72000 597.000
42.76000 572.000
42.80000 636.000
42.84000 571.000
42.88000 687.000
42.92000 603.000
42.96000 659.000
43.00000 684.000
43.04000 699.000
43.08000 672.000
43.12000 729.000
43.16000 717.000
43.20000 731.000
43.24000 710.000
43.28000 642.000
43.32000 653.000
43.36000 583.000
43.40000 589.000
43.44000 545.000
43.48000 557.000
43.52000 529.000
43.56000 561.000
43.60000 532.000
43.64000 554.000
43.68000 530.000
43.72000 530.000
43.76000 520.000
43.80000 548.000
43.84000 528.000
43.88000 541.000
43.92000 528.000
43.96000 567.000
44.00000 517.000
44.04000 528.000
44.08000 519.000
44.12000 497.000
44.16000 539.000
44.20000 558.000
44.24000 537.000
44.28000 515.000
44.32000 523.000
44.36000 515.000
44.40000 554.000
44.44000 501.000
44.48000 500.000
44.52000 557.000
44.56000 518.000
44.60000 529.000
44.64000 520.000
44.68000 555.000
44.72000 550.000
44.76000 571.000
44.80000 529.000
44.84000 565.000
44.88000 526.000
44.92000 509.000
44.96000 542.000
45.00000 513.000
45.04000 507.000
45.08000 520.000
45.12000 544.000
45.16000 514.000
45.20000 534.000
45.24000 508.000
45.28000 531.000
45.32000 502.000
45.36000 550.000
45.40000 531.000
45.44000 525.000
45.48000 501.000
45.52000 551.000
45.56000 514.000
45.60000 565.000
45.64000 560.000
45.68000 505.000
45.72000 532.000
45.76000 547.000
45.80000 546.000
45.84000 576.000
45.88000 523.000
45.92000 532.000
45.96000 547.000
46.00000 541.000
46.04000 549.000
46.08000 546.000
46.12000 561.000
46.16000 520.000
46.20000 544.000
46.24000 510.000
46.28000 611.000
46.32000 525.000
46.36000 490.000
46.40000 509.000
46.44000 509.000
46.48000 552.000
46.52000 510.000
46.56000 530.000
46.60000 535.000
46.64000 511.000
46.68000 519.000
46.72000 509.000
46.76000 526.000
46.80000 472.000
46.84000 488.000
46.88000 458.000
46.92000 476.000
46.96000 478.000
47.00000 505.000
47.04000 518.000
47.08000 533.000
47.12000 474.000
47.16000 494.000
47.20000 475.000
47.24000 471.000
47.28000 499.000
47.32000 458.000
47.36000 462.000
47.40000 489.000
47.44000 398.000
47.48000 479.000
47.52000 507.000
47.56000 490.000
47.60000 483.000
47.64000 489.000
47.68000 488.000
47.72000 480.000
47.76000 473.000
47.80000 511.000
47.84000 474.000
47.88000 439.000
47.92000 485.000
47.96000 499.000
48.00000 467.000
48.04000 473.000
48.08000 538.000
48.12000 444.000
48.16000 486.000
48.20000 455.000
48.24000 488.000
48.28000 497.000
48.32000 490.000
48.36000 487.000
48.40000 448.000
48.44000 465.000
48.48000 542.000
48.52000 495.000
48.56000 462.000
48.60000 481.000
48.64000 475.000
48.68000 495.000
48.72000 469.000
48.76000 506.000
48.80000 447.000
48.84000 483.000
48.88000 487.000
48.92000 450.000
48.96000 484.000
49.00000 480.000
49.04000 487.000
49.08000 479.000
49.12000 484.000
49.16000 492.000
49.20000 495.000
49.24000 526.000
49.28000 500.000
49.32000 462.000
49.36000 478.000
49.40000 438.000
49.44000 465.000
49.48000 506.000
49.52000 450.000
49.56000 456.000
49.60000 463.000
49.64000 476.000
49.68000 453.000
49.72000 462.000
49.76000 478.000
49.80000 458.000
49.84000 471.000
49.88000 444.000
49.92000 456.000
49.96000 509.000
50.00000 475.000
50.04000 439.000
50.08000 450.000
50.12000 481.000
50.16000 486.000
50.20000 448.000
50.24000 471.000
50.28000 502.000
50.32000 448.000
50.36000 468.000
50.40000 444.000
50.44000 486.000
50.48000 445.000
50.52000 468.000
50.56000 477.000
50.60000 485.000
50.64000 495.000
50.68000 488.000
50.72000 484.000
50.76000 524.000
50.80000 505.000
50.84000 486.000
50.88000 501.000
50.92000 512.000
50.96000 472.000
51.00000 471.000
51.04000 519.000
51.08000 488.000
51.12000 468.000
51.16000 482.000
51.20000 491.000
51.24000 487.000
51.28000 476.000
51.32000 477.000
51.36000 453.000
51.40000 490.000
51.44000 497.000
51.48000 467.000
51.52000 502.000
51.56000 494.000
51.60000 494.000
51.64000 535.000
51.68000 521.000
51.72000 509.000
51.76000 498.000
51.80000 580.000
51.84000 485.000
51.88000 595.000
51.92000 587.000
51.96000 622.000
52.00000 605.000
52.04000 692.000
52.08000 687.000
52.12000 657.000
52.16000 700.000
52.20000 748.000
52.24000 787.000
52.28000 708.000
52.32000 663.000
52.36000 629.000
52.40000 622.000
52.44000 633.000
52.48000 566.000
52.52000 577.000
52.56000 579.000
52.60000 547.000
52.64000 548.000
52.68000 537.000
52.72000 487.000
52.76000 486.000
52.80000 491.000
52.84000 473.000
52.88000 444.000
52.92000 454.000
52.96000 489.000
53.00000 441.000
53.04000 449.000
53.08000 494.000
53.12000 488.000
53.16000 461.000
53.20000 488.000
53.24000 442.000
53.28000 420.000
53.32000 480.000
53.36000 458.000
53.40000 479.000
53.44000 468.000
53.48000 459.000
53.52000 438.000
53.56000 469.000
53.60000 473.000
53.64000 458.000
53.68000 449.000
53.72000 483.000
53.76000 430.000
53.80000 426.000
53.84000 432.000
53.88000 482.000
53.92000 477.000
53.96000 475.000
54.00000 467.000
54.04000 450.000
54.08000 468.000
54.12000 436.000
54.16000 455.000
54.20000 430.000
54.24000 456.000
54.28000 399.000
54.32000 427.000
54.36000 449.000
54.40000 456.000
54.44000 444.000
54.48000 475.000
54.52000 441.000
54.56000 448.000
54.60000 460.000
54.64000 460.000
54.68000 433.000
54.72000 424.000
54.76000 430.000
54.80000 462.000
54.84000 464.000
54.88000 485.000
54.92000 431.000
54.96000 413.000
55.00000 517.000
55.04000 435.000
55.08000 411.000
55.12000 470.000
55.16000 459.000
55.20000 439.000
55.24000 430.000
55.28000 429.000
55.32000 463.000
55.36000 459.000
55.40000 431.000
55.44000 425.000
55.48000 454.000
55.52000 433.000
55.56000 416.000
55.60000 418.000
55.64000 436.000
55.68000 479.000
55.72000 436.000
55.76000 452.000
55.80000 440.000
55.84000 426.000
55.88000 479.000
55.92000 423.000
55.96000 450.000
56.00000 464.000
56.04000 434.000
56.08000 427.000
56.12000 465.000
56.16000 413.000
56.20000 482.000
56.24000 436.000
56.28000 429.000
56.32000 394.000
56.36000 432.000
56.40000 428.000
56.44000 456.000
56.48000 446.000
56.52000 447.000
56.56000 411.000
56.60000 435.000
56.64000 428.000
56.68000 428.000
56.72000 420.000
56.76000 426.000
56.80000 435.000
56.84000 451.000
56.88000 478.000
56.92000 461.000
56.96000 412.000
57.00000 448.000
57.04000 464.000
57.08000 433.000
57.12000 464.000
57.16000 448.000
57.20000 434.000
57.24000 452.000
57.28000 445.000
57.32000 452.000
57.36000 429.000
57.40000 416.000
57.44000 428.000
57.48000 443.000
57.52000 446.000
57.56000 474.000
57.60000 434.000
57.64000 444.000
57.68000 437.000
57.72000 433.000
57.76000 448.000
57.80000 453.000
57.84000 455.000
57.88000 445.000
57.92000 431.000
57.96000 482.000
58.00000 434.000
58.04000 428.000
58.08000 431.000
58.12000 439.000
58.16000 450.000
58.20000 453.000
58.24000 459.000
58.28000 467.000
58.32000 488.000
58.36000 442.000
58.40000 475.000
58.44000 438.000
58.48000 439.000
58.52000 480.000
58.56000 465.000
58.60000 431.000
58.64000 445.000
58.68000 447.000
58.72000 423.000
58.76000 473.000
58.80000 452.000
58.84000 431.000
58.88000 466.000
58.92000 453.000
58.96000 436.000
59.00000 440.000
59.04000 446.000
59.08000 450.000
59.12000 417.000
59.16000 419.000
59.20000 445.000
59.24000 452.000
59.28000 465.000
59.32000 459.000
59.36000 439.000
59.40000 456.000
59.44000 408.000
59.48000 450.000
59.52000 444.000
59.56000 462.000
59.60000 440.000
59.64000 465.000
59.68000 434.000
59.72000 444.000
59.76000 454.000
59.80000 434.000
59.84000 492.000
59.88000 425.000
59.92000 501.000