File: XRD/56.xy
5.00000 1432.000
5.04000 1474.000
5.08000 1537.000
5.12000 1493.000
5.16000 1399.000
5.20000 1365.000
5.24000 1358.000
5.28000 1352.000
5.32000 1366.000
5.36000 1375.000
5.40000 1320.000
5.44000 1377.000
5.48000 1384.000
5.52000 1386.000
5.56000 1331.000
5.60000 1301.000
5.64000 1317.000
5.68000 1265.000
5.72000 1277.000
5.76000 1235.000
5.80000 1245.000
5.84000 1260.000
5.88000 1257.000
5.92000 1255.000
5.96000 1238.000
6.00000 1238.000
6.04000 1238.000
6.08000 1181.000
6.12000 1281.000
6.16000 1178.000
6.20000 1178.000
6.24000 1147.000
6.28000 1190.000
6.32000 1182.000
6.36000 1190.000
6.40000 1168.000
6.44000 1153.000
6.48000 1131.000
6.52000 1062.000
6.56000 1078.000
6.60000 1079.000
6.64000 1136.000
6.68000 1091.000
6.72000 1080.000
6.76000 1106.000
6.80000 1093.000
6.84000 1033.000
6.88000 1055.000
6.92000 1081.000
6.96000 1019.000
7.00000 1002.000
7.04000 1028.000
7.08000 960.000
7.12000 1005.000
7.16000 1076.000
7.20000 1041.000
7.24000 978.000
7.28000 955.000
7.32000 1019.000
7.36000 1041.000
7.40000 1032.000
7.44000 1017.000
7.48000 949.000
7.52000 980.000
7.56000 1020.000
7.60000 973.000
7.64000 993.000
7.68000 947.000
7.72000 962.000
7.76000 900.000
7.80000 928.000
7.84000 968.000
7.88000 917.000
7.92000 1008.000
7.96000 942.000
8.00000 928.000
8.04000 979.000
8.08000 946.000
8.12000 945.000
8.16000 916.000
8.20000 942.000
8.24000 931.000
8.28000 949.000
8.32000 943.000
8.36000 913.000
8.40000 934.000
8.44000 953.000
8.48000 949.000
8.52000 975.000
8.56000 948.000
8.60000 969.000
8.64000 971.000
8.68000 901.000
8.72000 890.000
8.76000 919.000
8.80000 862.000
8.84000 812.000
8.88000 860.000
8.92000 815.000
8.96000 845.000
9.00000 855.000
9.04000 836.000
9.08000 869.000
9.12000 865.000
9.16000 832.000
9.20000 792.000
9.24000 795.000
9.28000 838.000
9.32000 795.000
9.36000 794.000
9.40000 785.000
9.44000 839.000
9.48000 824.000
9.52000 803.000
9.56000 820.000
9.60000 759.000
9.64000 783.000
9.68000 754.000
9.72000 779.000
9.76000 763.000
9.80000 785.000
9.84000 720.000
9.88000 767.000
9.92000 807.000
9.96000 723.000
10.00000 734.000
10.04000 712.000
10.08000 721.000
10.12000 714.000
10.16000 721.000
10.20000 702.000
10.24000 676.000
10.28000 766.000
10.32000 764.000
10.36000 726.000
10.40000 682.000
10.44000 738.000
10.48000 753.000
10.52000 722.000
10.56000 718.000
10.60000 758.000
10.64000 733.000
10.68000 735.000
10.72000 757.000
10.76000 696.000
10.80000 740.000
10.84000 737.000
10.88000 698.000
10.92000 706.000
10.96000 692.000
11.00000 706.000
11.04000 751.000
11.08000 737.000
11.12000 686.000
11.16000 705.000
11.20000 650.000
11.24000 666.000
11.28000 744.000
11.32000 684.000
11.36000 775.000
11.40000 669.000
11.44000 669.000
11.48000 684.000
11.52000 729.000
11.56000 670.000
11.60000 673.000
11.64000 693.000
11.68000 711.000
11.72000 711.000
11.76000 711.000
11.80000 705.000
11.84000 730.000
11.88000 759.000
11.92000 718.000
11.96000 711.000
12.00000 714.000
12.04000 707.000
12.08000 760.000
12.12000 685.000
12.16000 720.000
12.20000 724.000
12.24000 772.000
12.28000 801.000
12.32000 805.000
12.36000 819.000
12.40000 769.000
12.44000 733.000
12.48000 713.000
12.52000 725.000
12.56000 729.000
12.60000 718.000
12.64000 675.000
12.68000 705.000
12.72000 720.000
12.76000 702.000
12.80000 777.000
12.84000 697.000
12.88000 746.000
12.92000 710.000
12.96000 750.000
13.00000 704.000
13.04000 736.000
13.08000 719.000
13.12000 749.000
13.16000 732.000
13.20000 693.000
13.24000 756.000
13.28000 719.000
13.32000 667.000
13.36000 710.000
13.40000 702.000
13.44000 739.000
13.48000 703.000
13.52000 666.000
13.56000 670.000
13.60000 682.000
13.64000 703.000
13.68000 714.000
13.72000 706.000
13.76000 702.000
13.80000 680.000
13.84000 716.000
13.88000 691.000
13.92000 665.000
13.96000 688.000
14.00000 659.000
14.04000 751.000
14.08000 668.000
14.12000 766.000
14.16000 694.000
14.20000 712.000
14.24000 702.000
14.28000 719.000
14.32000 734.000
14.36000 705.000
14.40000 693.000
14.44000 716.000
14.48000 735.000
14.52000 797.000
14.56000 740.000
14.60000 738.000
14.64000 768.000
14.68000 731.000
14.72000 780.000
14.76000 725.000
14.80000 757.000
14.84000 771.000
14.88000 719.000
14.92000 815.000
14.96000 815.000
15.00000 782.000
15.04000 775.000
15.08000 753.000
15.12000 771.000
15.16000 791.000
15.20000 768.000
15.24000 758.000
15.28000 747.000
15.32000 779.000
15.36000 782.000
15.40000 776.000
15.44000 759.000
15.48000 749.000
15.52000 737.000
15.56000 720.000
15.60000 711.000
15.64000 724.000
15.68000 691.000
15.72000 695.000
15.76000 741.000
15.80000 737.000
15.84000 787.000
15.88000 765.000
15.92000 740.000
15.96000 676.000
16.00000 786.000
16.04000 742.000
16.08000 749.000
16.12000 775.000
16.16000 766.000
16.20000 804.000
16.24000 756.000
16.28000 732.000
16.32000 722.000
16.36000 714.000
16.40000 782.000
16.44000 787.000
16.48000 748.000
16.52000 770.000
16.56000 817.000
16.60000 819.000
16.64000 765.000
16.68000 776.000
16.72000 821.000
16.76000 788.000
16.80000 793.000
16.84000 793.000
16.88000 822.000
16.92000 874.000
16.96000 889.000
17.00000 906.000
17.04000 871.000
17.08000 935.000
17.12000 920.000
17.16000 953.000
17.20000 967.000
17.24000 979.000
17.28000 960.000
17.32000 983.000
17.36000 947.000
17.40000 999.000
17.44000 906.000
17.48000 875.000
17.52000 937.000
17.56000 895.000
17.60000 903.000
17.64000 842.000
17.68000 812.000
17.72000 866.000
17.76000 804.000
17.80000 875.000
17.84000 893.000
17.88000 843.000
17.92000 799.000
17.96000 837.000
18.00000 894.000
18.04000 900.000
18.08000 857.000
18.12000 870.000
18.16000 867.000
18.20000 843.000
18.24000 900.000
18.28000 812.000
18.32000 852.000
18.36000 860.000
18.40000 897.000
18.44000 901.000
18.48000 966.000
18.52000 896.000
18.56000 953.000
18.60000 925.000
18.64000 904.000
18.68000 916.000
18.72000 914.000
18.76000 912.000
18.80000 957.000
18.84000 923.000
18.88000 876.000
18.92000 941.000
18.96000 946.000
19.00000 957.000
19.04000 972.000
19.08000 968.000
19.12000 971.000
19.16000 985.000
19.20000 975.000
19.24000 941.000
19.28000 978.000
19.32000 927.000
19.36000 1003.000
19.40000 988.000
19.44000 1026.000
19.48000 1021.000
19.52000 1035.000
19.56000 1004.000
19.60000 1007.000
19.64000 992.000
19.68000 1010.000
19.72000 1053.000
19.76000 1038.000
19.80000 1076.000
19.84000 1029.000
19.88000 987.000
19.92000 1072.000
19.96000 1040.000
20.00000 1015.000
20.04000 1058.000
20.08000 1049.000
20.12000 1165.000
20.16000 1112.000
20.20000 1084.000
20.24000 1044.000
20.28000 1071.000
20.32000 1090.000
20.36000 1106.000
20.40000 1081.000
20.44000 1122.000
20.48000 1055.000
20.52000 1102.000
20.56000 1153.000
20.60000 1157.000
20.64000 1113.000
20.68000 1054.000
20.72000 1164.000
20.76000 1145.000
20.80000 1128.000
20.84000 1151.000
20.88000 1167.000
20.92000 1178.000
20.96000 1239.000
21.00000 1197.000
21.04000 1227.000
21.08000 1224.000
21.12000 1260.000
21.16000 1322.000
21.20000 1339.000
21.24000 1349.000
21.28000 1431.000
21.32000 1390.000
21.36000 1369.000
21.40000 1353.000
21.44000 1297.000
21.48000 1314.000
21.52000 1342.000
21.56000 1294.000
21.60000 1199.000
21.64000 1276.000
21.68000 1314.000
21.72000 1280.000
21.76000 1277.000
21.80000 1220.000
21.84000 1278.000
21.88000 1268.000
21.92000 1313.000
21.96000 1270.000
22.00000 1190.000
22.04000 1224.000
22.08000 1243.000
22.12000 1242.000
22.16000 1244.000
22.20000 1218.000
22.24000 1248.000
22.28000 1191.000
22.32000 1235.000
22.36000 1280.000
22.40000 1237.000
22.44000 1296.000
22.48000 1257.000
22.52000 1292.000
22.56000 1246.000
22.60000 1253.000
22.64000 1269.000
22.68000 1338.000
22.72000 1242.000
22.76000 1358.000
22.80000 1260.000
22.84000 1328.000
22.88000 1257.000
22.92000 1303.000
22.96000 1323.000
23.00000 1354.000
23.04000 1293.000
23.08000 1338.000
23.12000 1286.000
23.16000 1264.000
23.20000 1315.000
23.24000 1280.000
23.28000 1326.000
23.32000 1391.000
23.36000 1329.000
23.40000 1234.000
23.44000 1268.000
23.48000 1362.000
23.52000 1291.000
23.56000 1313.000
23.60000 1309.000
23.64000 1310.000
23.68000 1309.000
23.72000 1269.000
23.76000 1294.000
23.80000 1345.000
23.84000 1352.000
23.88000 1301.000
23.92000 1224.000
23.96000 1288.000
24.00000 1208.000
24.04000 1264.000
24.08000 1323.000
24.12000 1297.000
24.16000 1251.000
24.20000 1294.000
24.24000 1338.000
24.28000 1246.000
24.32000 1310.000
24.36000 1363.000
24.40000 1357.000
24.44000 1262.000
24.48000 1293.000
24.52000 1383.000
24.56000 1252.000
24.60000 1346.000
24.64000 1316.000
24.68000 1390.000
24.72000 1308.000
24.76000 1266.000
24.80000 1349.000
24.84000 1391.000
24.88000 1346.000
24.92000 1357.000
24.96000 1284.000
25.00000 1332.000
25.04000 1303.000
25.08000 1391.000
25.12000 1314.000
25.16000 1332.000
25.20000 1316.000
25.24000 1367.000
25.28000 1334.000
25.32000 1324.000
25.36000 1274.000
25.40000 1312.000
25.44000 1316.000
25.48000 1448.000
25.52000 1429.000
25.56000 1390.000
25.60000 1429.000
25.64000 1460.000
25.68000 1387.000
25.72000 1507.000
25.76000 1540.000
25.80000 1590.000
25.84000 1554.000
25.88000 1719.000
25.92000 1634.000
25.96000 1757.000
26.00000 1810.000
26.04000 1909.000
26.08000 1735.000
26.12000 1924.000
26.16000 1937.000
26.20000 1890.000
26.24000 1758.000
26.28000 1812.000
26.32000 1695.000
26.36000 1715.000
26.40000 1519.000
26.44000 1578.000
26.48000 1519.000
26.52000 1388.000
26.56000 1380.000
26.60000 1350.000
26.64000 1317.000
26.68000 1312.000
26.72000 1355.000
26.76000 1242.000
26.80000 1291.000
26.84000 1269.000
26.88000 1269.000
26.92000 1319.000
26.96000 1191.000
27.00000 1279.000
27.04000 1260.000
27.08000 1223.000
27.12000 1217.000
27.16000 1265.000
27.20000 1140.000
27.24000 1186.000
27.28000 1254.000
27.32000 1264.000
27.36000 1272.000
27.40000 1239.000
27.44000 1266.000
27.48000 1223.000
27.52000 1269.000
27.56000 1355.000
27.60000 1285.000
27.64000 1260.000
27.68000 1268.000
27.72000 1285.000
27.76000 1271.000
27.80000 1264.000
27.84000 1254.000
27.88000 1264.000
27.92000 1181.000
27.96000 1219.000
28.00000 1256.000
28.04000 1185.000
28.08000 1176.000
28.12000 1255.000
28.16000 1199.000
28.20000 1234.000
28.24000 1263.000
28.28000 1254.000
28.32000 1172.000
28.36000 1214.000
28.40000 1152.000
28.44000 1135.000
28.48000 1196.000
28.52000 1139.000
28.56000 1150.000
28.60000 1079.000
28.64000 1212.000
28.68000 1177.000
28.72000 1231.000
28.76000 1159.000
28.80000 1250.000
28.84000 1183.000
28.88000 1191.000
28.92000 1130.000
28.96000 1186.000
29.00000 1255.000
29.04000 1187.000
29.08000 1137.000
29.12000 1141.000
29.16000 1183.000
29.20000 1158.000
29.24000 1147.000
29.28000 1103.000
29.32000 1208.000
29.36000 1148.000
29.40000 1180.000
29.44000 1071.000
29.48000 1112.000
29.52000 1146.000
29.56000 1153.000
29.60000 1139.000
29.64000 1107.000
29.68000 1142.000
29.72000 1144.000
29.76000 1109.000
29.80000 1103.000
29.84000 1174.000
29.88000 1211.000
29.92000 1146.000
29.96000 1218.000
30.00000 1239.000
30.04000 1253.000
30.08000 1324.000
30.12000 1303.000
30.16000 1307.000
30.20000 1257.000
30.24000 1362.000
30.28000 1374.000
30.32000 1493.000
30.36000 1406.000
30.40000 1453.000
30.44000 1463.000
30.48000 1432.000
30.52000 1316.000
30.56000 1312.000
30.60000 1238.000
30.64000 1265.000
30.68000 1228.000
30.72000 1206.000
30.76000 1226.000
30.80000 1185.000
30.84000 1135.000
30.88000 1069.000
30.92000 1119.000
30.96000 1064.000
31.00000 1044.000
31.04000 1066.000
31.08000 1127.000
31.12000 1099.000
31.16000 1083.000
31.20000 1055.000
31.24000 1081.000
31.28000 1023.000
31.32000 1021.000
31.36000 996.000
31.40000 1022.000
31.44000 1062.000
31.48000 1033.000
31.52000 994.000
31.56000 996.000
31.60000 996.000
31.64000 1007.000
31.68000 1017.000
31.72000 994.000
31.76000 969.000
31.80000 962.000
31.84000 917.000
31.88000 1007.000
31.92000 971.000
31.96000 1005.000
32.00000 936.000
32.04000 1039.000
32.08000 947.000
32.12000 1006.000
32.16000 918.000
32.20000 938.000
32.24000 983.000
32.28000 910.000
32.32000 958.000
32.36000 940.000
32.40000 955.000
32.44000 907.000
32.48000 941.000
32.52000 987.000
32.56000 994.000
32.60000 908.000
32.64000 892.000
32.68000 951.000
32.72000 948.000
32.76000 962.000
32.80000 920.000
32.84000 928.000
32.88000 980.000
32.92000 952.000
32.96000 940.000
33.00000 975.000
33.04000 921.000
33.08000 877.000
33.12000 939.000
33.16000 898.000
33.20000 853.000
33.24000 869.000
33.28000 888.000
33.32000 863.000
33.36000 924.000
33.40000 872.000
33.44000 904.000
33.48000 835.000
33.52000 835.000
33.56000 813.000
33.60000 848.000
33.64000 899.000
33.68000 874.000
33.72000 801.000
33.76000 887.000
33.80000 802.000
33.84000 868.000
33.88000 815.000
33.92000 868.000
33.96000 877.000
34.00000 893.000
34.04000 841.000
34.08000 854.000
34.12000 877.000
34.16000 881.000
34.20000 825.000
34.24000 814.000
34.28000 778.000
34.32000 845.000
34.36000 812.000
34.40000 810.000
34.44000 759.000
34.48000 747.000
34.52000 822.000
34.56000 790.000
34.60000 743.000
34.64000 770.000
34.68000 705.000
34.72000 767.000
34.76000 801.000
34.80000 743.000
34.84000 729.000
34.88000 757.000
34.92000 757.000
34.96000 753.000
35.00000 770.000
35.04000 761.000
35.08000 754.000
35.12000 754.000
35.16000 757.000
35.20000 737.000
35.24000 710.000
35.28000 670.000
35.32000 710.000
35.36000 741.000
35.40000 698.000
35.44000 683.000
35.48000 710.000
35.52000 702.000
35.56000 693.000
35.60000 680.000
35.64000 659.000
35.68000 694.000
35.72000 657.000
35.76000 694.000
35.80000 675.000
35.84000 685.000
35.88000 648.000
35.92000 676.000
35.96000 648.000
36.00000 672.000
36.04000 664.000
36.08000 696.000
36.12000 646.000
36.16000 670.000
36.20000 654.000
36.24000 667.000
36.28000 673.000
36.32000 591.000
36.36000 661.000
36.40000 677.000
36.44000 630.000
36.48000 660.000
36.52000 658.000
36.56000 678.000
36.60000 668.000
36.64000 652.000
36.68000 632.000
36.72000 667.000
36.76000 645.000
36.80000 649.000
36.84000 597.000
36.88000 578.000
36.92000 634.000
36.96000 656.000
37.00000 633.000
37.04000 677.000
37.08000 646.000
37.12000 632.000
37.16000 599.000
37.20000 640.000
37.24000 588.000
37.28000 629.000
37.32000 637.000
37.36000 640.000
37.40000 642.000
37.44000 663.000
37.48000 676.000
37.52000 658.000
37.56000 635.000
37.60000 642.000
37.64000 586.000
37.68000 645.000
37.72000 642.000
37.76000 599.000
37.80000 602.000
37.84000 597.000
37.88000 538.000
37.92000 611.000
37.96000 552.000
38.00000 566.000
38.04000 550.000
38.08000 538.000
38.12000 547.000
38.16000 574.000
38.20000 561.000
38.24000 557.000
38.28000 531.000
38.32000 583.000
38.36000 526.000
38.40000 529.000
38.44000 576.000
38.48000 551.000
38.52000 532.000
38.56000 588.000
38.60000 568.000
38.64000 537.000
38.68000 568.000
38.72000 532.000
38.76000 550.000
38.80000 563.000
38.84000 556.000
38.88000 546.000
38.92000 544.000
38.96000 553.000
39.00000 528.000
39.04000 573.000
39.08000 533.000
39.12000 560.000
39.16000 532.000
39.20000 527.000
39.24000 558.000
39.28000 520.000
39.32000 573.000
39.36000 611.000
39.40000 539.000
39.44000 571.000
39.48000 559.000
39.52000 517.000
39.56000 547.000
39.60000 577.000
39.64000 529.000
39.68000 546.000
39.72000 524.000
39.76000 493.000
39.80000 538.000
39.84000 539.000
39.88000 588.000
39.92000 537.000
39.96000 530.000
40.00000 512.000
40.04000 510.000
40.08000 534.000
40.12000 553.000
40.16000 538.000
40.20000 534.000
40.24000 554.000
40.28000 553.000
40.32000 524.000
40.36000 545.000
40.40000 551.000
40.44000 537.000
40.48000 536.000
40.52000 561.000
40.56000 527.000
40.60000 527.000
40.64000 523.000
40.68000 521.000
40.72000 568.000
40.76000 554.000
40.80000 527.000
40.84000 521.000
40.88000 554.000
40.92000 562.000
40.96000 538.000
41.00000 518.000
41.04000 541.000
41.08000 548.000
41.12000 540.000
41.16000 557.000
41.20000 551.000
41.24000 557.000
41.28000 609.000
41.32000 535.000
41.36000 529.000
41.40000 559.000
41.44000 524.000
41.48000 560.000
41.52000 566.000
41.56000 550.000
41.60000 555.000
41.64000 547.000
41.68000 533.000
41.72000 540.000
41.76000 555.000
41.80000 540.000
41.84000 581.000
41.88000 564.000
41.92000 531.000
41.96000 520.000
42.00000 527.000
42.04000 569.000
42.08000 571.000
42.12000 564.000
42.16000 509.000
42.20000 543.000
42.24000 539.000
42.28000 551.000
42.32000 557.000
42.36000 609.000
42.40000 549.000
42.44000 571.000
42.48000 527.000
42.52000 585.000
42.56000 577.000
42.60000 527.000
42.64000 573.000
42.68000 579.000
42.72000 515.000
42.76000 562.000
42.80000 570.000
42.84000 582.000
42.88000 531.000
42.92000 588.000
42.96000 567.000
43.00000 591.000
43.04000 616.000
43.08000 582.000
43.12000 620.000
43.16000 609.000
43.20000 598.000
43.24000 661.000
43.28000 647.000
43.32000 601.000
43.36000 667.000
43.40000 692.000
43.44000 646.000
43.48000 683.000
43.52000 687.000
43.56000 708.000
43.60000 737.000
43.64000 688.000
43.68000 717.000
43.72000 670.000
43.76000 683.000
43.80000 648.000
43.84000 684.000
43.88000 659.000
43.92000 599.000
43.96000 628.000
44.00000 550.000
44.04000 568.000
44.08000 566.000
44.12000 564.000
44.16000 553.000
44.20000 566.000
44.24000 585.000
44.28000 549.000
44.32000 569.000
44.36000 569.000
44.40000 533.000
44.44000 599.000
44.48000 565.000
44.52000 513.000
44.56000 532.000
44.60000 529.000
44.64000 536.000
44.68000 587.000
44.72000 569.000
44.76000 540.000
44.80000 514.000
44.84000 536.000
44.88000 468.000
44.92000 536.000
44.96000 523.000
45.00000 528.000
45.04000 491.000
45.08000 551.000
45.12000 537.000
45.16000 492.000
45.20000 510.000
45.24000 491.000
45.28000 545.000
45.32000 521.000
45.36000 487.000
45.40000 516.000
45.44000 512.000
45.48000 538.000
45.52000 544.000
45.56000 552.000
45.60000 540.000
45.64000 548.000
45.68000 540.000
45.72000 488.000
45.76000 477.000
45.80000 529.000
45.84000 514.000
45.88000 531.000
45.92000 522.000
45.96000 538.000
46.00000 501.000
46.04000 472.000
46.08000 513.000
46.12000 532.000
46.16000 542.000
46.20000 538.000
46.24000 514.000
46.28000 530.000
46.32000 499.000
46.36000 517.000
46.40000 525.000
46.44000 491.000
46.48000 505.000
46.52000 529.000
46.56000 479.000
46.60000 537.000
46.64000 471.000
46.68000 528.000
46.72000 488.000
46.76000 522.000
46.80000 481.000
46.84000 515.000
46.88000 440.000
46.92000 501.000
46.96000 478.000
47.00000 482.000
47.04000 534.000
47.08000 486.000
47.12000 507.000
47.16000 483.000
47.20000 460.000
47.24000 464.000
47.28000 483.000
47.32000 455.000
47.36000 517.000
47.40000 462.000
47.44000 487.000
47.48000 529.000
47.52000 505.000
47.56000 495.000
47.60000 485.000
47.64000 482.000
47.68000 520.000
47.72000 490.000
47.76000 477.000
47.80000 461.000
47.84000 435.000
47.88000 489.000
47.92000 490.000
47.96000 467.000
48.00000 475.000
48.04000 489.000
48.08000 490.000
48.12000 447.000
48.16000 480.000
48.20000 506.000
48.24000 470.000
48.28000 460.000
48.32000 467.000
48.36000 502.000
48.40000 455.000
48.44000 493.000
48.48000 490.000
48.52000 473.000
48.56000 488.000
48.60000 469.000
48.64000 481.000
48.68000 492.000
48.72000 499.000
48.76000 486.000
48.80000 478.000
48.84000 483.000
48.88000 499.000
48.92000 463.000
48.96000 464.000
49.00000 477.000
49.04000 489.000
49.08000 469.000
49.12000 471.000
49.16000 489.000
49.20000 493.000
49.24000 495.000
49.28000 488.000
49.32000 515.000
49.36000 458.000
49.40000 458.000
49.44000 460.000
49.48000 466.000
49.52000 473.000
49.56000 488.000
49.60000 519.000
49.64000 465.000
49.68000 465.000
49.72000 492.000
49.76000 452.000
49.80000 461.000
49.84000 484.000
49.88000 479.000
49.92000 420.000
49.96000 474.000
50.00000 461.000
50.04000 465.000
50.08000 433.000
50.12000 460.000
50.16000 438.000
50.20000 456.000
50.24000 473.000
50.28000 475.000
50.32000 440.000
50.36000 448.000
50.40000 460.000
50.44000 468.000
50.48000 466.000
50.52000 437.000
50.56000 425.000
50.60000 498.000
50.64000 441.000
50.68000 474.000
50.72000 452.000
50.76000 459.000
50.80000 470.000
50.84000 463.000
50.88000 481.000
50.92000 485.000
50.96000 482.000
51.00000 465.000
51.04000 490.000
51.08000 486.000
51.12000 470.000
51.16000 482.000
51.20000 528.000
51.24000 477.000
51.28000 453.000
51.32000 449.000
51.36000 475.000
51.40000 488.000
51.44000 517.000
51.48000 465.000
51.52000 474.000
51.56000 482.000
51.60000 506.000
51.64000 525.000
51.68000 475.000
51.72000 459.000
51.76000 507.000
51.80000 468.000
51.84000 446.000
51.88000 497.000
51.92000 448.000
51.96000 430.000
52.00000 454.000
52.04000 451.000
52.08000 471.000
52.12000 440.000
52.16000 450.000
52.20000 435.000
52.24000 467.000
52.28000 421.000
52.32000 449.000
52.36000 427.000
52.40000 430.000
52.44000 470.000
52.48000 407.000
52.52000 454.000
52.56000 441.000
52.60000 470.000
52.64000 421.000
52.68000 444.000
52.72000 473.000
52.76000 483.000
52.80000 456.000
52.84000 435.000
52.88000 445.000
52.92000 415.000
52.96000 411.000
53.00000 450.000
53.04000 473.000
53.08000 441.000
53.12000 453.000
53.16000 414.000
53.20000 434.000
53.24000 487.000
53.28000 476.000
53.32000 470.000
53.36000 471.000
53.40000 483.000
53.44000 495.000
53.48000 479.000
53.52000 447.000
53.56000 474.000
53.60000 481.000
53.64000 463.000
53.68000 489.000
53.72000 465.000
53.76000 501.000
53.80000 484.000
53.84000 493.000
53.88000 493.000
53.92000 466.000
53.96000 454.000
54.00000 437.000
54.04000 510.000
54.08000 484.000
54.12000 481.000
54.16000 512.000
54.20000 447.000
54.24000 469.000
54.28000 459.000
54.32000 476.000
54.36000 447.000
54.40000 449.000
54.44000 406.000
54.48000 426.000
54.52000 434.000
54.56000 456.000
54.60000 422.000
54.64000 462.000
54.68000 442.000
54.72000 453.000
54.76000 384.000
54.80000 428.000
54.84000 432.000
54.88000 433.000
54.92000 472.000
54.96000 460.000
55.00000 428.000
55.04000 465.000
55.08000 447.000
55.12000 421.000
55.16000 445.000
55.20000 436.000
55.24000 433.000
55.28000 456.000
55.32000 454.000
55.36000 495.000
55.40000 445.000
55.44000 410.000
55.48000 491.000
55.52000 433.000
55.56000 438.000
55.60000 441.000
55.64000 480.000
55.68000 432.000
55.72000 420.000
55.76000 412.000
55.80000 479.000
55.84000 398.000
55.88000 462.000
55.92000 456.000
55.96000 434.000
56.00000 469.000
56.04000 433.000
56.08000 470.000
56.12000 417.000
56.16000 469.000
56.20000 423.000
56.24000 443.000
56.28000 468.000
56.32000 465.000
56.36000 463.000
56.40000 448.000
56.44000 447.000
56.48000 473.000
56.52000 441.000
56.56000 460.000
56.60000 406.000
56.64000 473.000
56.68000 440.000
56.72000 465.000
56.76000 428.000
56.80000 476.000
56.84000 424.000
56.88000 443.000
56.92000 438.000
56.96000 400.000
57.00000 421.000
57.04000 428.000
57.08000 459.000
57.12000 450.000
57.16000 425.000
57.20000 448.000
57.24000 469.000
57.28000 416.000
57.32000 434.000
57.36000 459.000
57.40000 433.000
57.44000 462.000
57.48000 445.000
57.52000 450.000
57.56000 416.000
57.60000 446.000
57.64000 418.000
57.68000 414.000
57.72000 435.000
57.76000 430.000
57.80000 450.000
57.84000 480.000
57.88000 458.000
57.92000 429.000
57.96000 441.000
58.00000 447.000
58.04000 424.000
58.08000 423.000
58.12000 457.000
58.16000 459.000
58.20000 456.000
58.24000 434.000
58.28000 453.000
58.32000 456.000
58.36000 477.000
58.40000 442.000
58.44000 438.000
58.48000 426.000
58.52000 475.000
58.56000 452.000
58.60000 444.000
58.64000 434.000
58.68000 447.000
58.72000 446.000
58.76000 455.000
58.80000 455.000
58.84000 443.000
58.88000 477.000
58.92000 446.000
58.96000 451.000
59.00000 452.000
59.04000 442.000
59.08000 477.000
59.12000 414.000
59.16000 437.000
59.20000 422.000
59.24000 431.000
59.28000 451.000
59.32000 444.000
59.36000 448.000
59.40000 457.000
59.44000 454.000
59.48000 439.000
59.52000 450.000
59.56000 458.000
59.60000 386.000
59.64000 449.000
59.68000 430.000
59.72000 430.000
59.76000 457.000
59.80000 412.000
59.84000 455.000
59.88000 401.000
59.92000 450.000