File: XRD/57.xy
5.00000 1443.000
5.04000 1454.000
5.08000 1443.000
5.12000 1426.000
5.16000 1378.000
5.20000 1340.000
5.24000 1328.000
5.28000 1341.000
5.32000 1378.000
5.36000 1255.000
5.40000 1339.000
5.44000 1243.000
5.48000 1238.000
5.52000 1286.000
5.56000 1290.000
5.60000 1254.000
5.64000 1255.000
5.68000 1255.000
5.72000 1202.000
5.76000 1223.000
5.80000 1224.000
5.84000 1196.000
5.88000 1219.000
5.92000 1225.000
5.96000 1173.000
6.00000 1192.000
6.04000 1145.000
6.08000 1142.000
6.12000 1194.000
6.16000 1151.000
6.20000 1091.000
6.24000 1082.000
6.28000 1166.000
6.32000 1122.000
6.36000 1120.000
6.40000 1135.000
6.44000 1136.000
6.48000 1097.000
6.52000 1098.000
6.56000 1085.000
6.60000 1083.000
6.64000 1112.000
6.68000 1040.000
6.72000 1103.000
6.76000 1067.000
6.80000 1055.000
6.84000 1101.000
6.88000 1079.000
6.92000 959.000
6.96000 988.000
7.00000 1042.000
7.04000 1013.000
7.08000 1054.000
7.12000 972.000
7.16000 960.000
7.20000 987.000
7.24000 1020.000
7.28000 986.000
7.32000 992.000
7.36000 966.000
7.40000 1019.000
7.44000 1004.000
7.48000 1002.000
7.52000 910.000
7.56000 957.000
7.60000 900.000
7.64000 899.000
7.68000 907.000
7.72000 963.000
7.76000 953.000
7.80000 909.000
7.84000 924.000
7.88000 898.000
7.92000 889.000
7.96000 942.000
8.00000 898.000
8.04000 938.000
8.08000 923.000
8.12000 919.000
8.16000 917.000
8.20000 873.000
8.24000 934.000
8.28000 887.000
8.32000 930.000
8.36000 917.000
8.40000 938.000
8.44000 956.000
8.48000 928.000
8.52000 935.000
8.56000 955.000
8.60000 929.000
8.64000 956.000
8.68000 940.000
8.72000 952.000
8.76000 855.000
8.80000 869.000
8.84000 901.000
8.88000 852.000
8.92000 845.000
8.96000 826.000
9.00000 809.000
9.04000 805.000
9.08000 804.000
9.12000 792.000
9.16000 780.000
9.20000 865.000
9.24000 775.000
9.28000 787.000
9.32000 799.000
9.36000 770.000
9.40000 802.000
9.44000 759.000
9.48000 825.000
9.52000 744.000
9.56000 815.000
9.60000 732.000
9.64000 755.000
9.68000 736.000
9.72000 716.000
9.76000 744.000
9.80000 754.000
9.84000 780.000
9.88000 747.000
9.92000 743.000
9.96000 718.000
10.00000 739.000
10.04000 776.000
10.08000 739.000
10.12000 732.000
10.16000 690.000
10.20000 779.000
10.24000 708.000
10.28000 677.000
10.32000 719.000
10.36000 661.000
10.40000 801.000
10.44000 792.000
10.48000 741.000
10.52000 712.000
10.56000 711.000
10.60000 741.000
10.64000 695.000
10.68000 686.000
10.72000 692.000
10.76000 716.000
10.80000 760.000
10.84000 683.000
10.88000 765.000
10.92000 684.000
10.96000 712.000
11.00000 681.000
11.04000 661.000
11.08000 713.000
11.12000 718.000
11.16000 717.000
11.20000 694.000
11.24000 725.000
11.28000 699.000
11.32000 671.000
11.36000 701.000
11.40000 723.000
11.44000 736.000
11.48000 653.000
11.52000 726.000
11.56000 728.000
11.60000 673.000
11.64000 700.000
11.68000 657.000
11.72000 726.000
11.76000 717.000
11.80000 684.000
11.84000 699.000
11.88000 727.000
11.92000 689.000
11.96000 754.000
12.00000 769.000
12.04000 720.000
12.08000 749.000
12.12000 780.000
12.16000 720.000
12.20000 755.000
12.24000 792.000
12.28000 790.000
12.32000 789.000
12.36000 811.000
12.40000 727.000
12.44000 744.000
12.48000 753.000
12.52000 735.000
12.56000 682.000
12.60000 733.000
12.64000 687.000
12.68000 671.000
12.72000 745.000
12.76000 622.000
12.80000 710.000
12.84000 691.000
12.88000 705.000
12.92000 743.000
12.96000 693.000
13.00000 628.000
13.04000 678.000
13.08000 719.000
13.12000 686.000
13.16000 704.000
13.20000 683.000
13.24000 715.000
13.28000 736.000
13.32000 681.000
13.36000 724.000
13.40000 687.000
13.44000 698.000
13.48000 702.000
13.52000 718.000
13.56000 710.000
13.60000 650.000
13.64000 713.000
13.68000 736.000
13.72000 689.000
13.76000 717.000
13.80000 708.000
13.84000 674.000
13.88000 691.000
13.92000 667.000
13.96000 679.000
14.00000 701.000
14.04000 659.000
14.08000 707.000
14.12000 732.000
14.16000 688.000
14.20000 687.000
14.24000 702.000
14.28000 680.000
14.32000 727.000
14.36000 730.000
14.40000 717.000
14.44000 726.000
14.48000 705.000
14.52000 757.000
14.56000 764.000
14.60000 767.000
14.64000 745.000
14.68000 738.000
14.72000 725.000
14.76000 775.000
14.80000 771.000
14.84000 811.000
14.88000 807.000
14.92000 837.000
14.96000 847.000
15.00000 889.000
15.04000 829.000
15.08000 836.000
15.12000 793.000
15.16000 826.000
15.20000 853.000
15.24000 863.000
15.28000 819.000
15.32000 766.000
15.36000 728.000
15.40000 719.000
15.44000 785.000
15.48000 735.000
15.52000 751.000
15.56000 732.000
15.60000 766.000
15.64000 736.000
15.68000 700.000
15.72000 751.000
15.76000 756.000
15.80000 746.000
15.84000 735.000
15.88000 747.000
15.92000 676.000
15.96000 740.000
16.00000 710.000
16.04000 730.000
16.08000 759.000
16.12000 740.000
16.16000 743.000
16.20000 782.000
16.24000 752.000
16.28000 781.000
16.32000 762.000
16.36000 768.000
16.40000 739.000
16.44000 750.000
16.48000 750.000
16.52000 788.000
16.56000 805.000
16.60000 778.000
16.64000 797.000
16.68000 786.000
16.72000 762.000
16.76000 796.000
16.80000 818.000
16.84000 872.000
16.88000 828.000
16.92000 857.000
16.96000 877.000
17.00000 855.000
17.04000 895.000
17.08000 876.000
17.12000 961.000
17.16000 973.000
17.20000 959.000
17.24000 969.000
17.28000 981.000
17.32000 1088.000
17.36000 1102.000
17.40000 1050.000
17.44000 983.000
17.48000 1029.000
17.52000 1024.000
17.56000 993.000
17.60000 909.000
17.64000 846.000
17.68000 853.000
17.72000 847.000
17.76000 858.000
17.80000 840.000
17.84000 842.000
17.88000 835.000
17.92000 871.000
17.96000 862.000
18.00000 847.000
18.04000 893.000
18.08000 807.000
18.12000 873.000
18.16000 884.000
18.20000 874.000
18.24000 918.000
18.28000 900.000
18.32000 911.000
18.36000 916.000
18.40000 909.000
18.44000 867.000
18.48000 881.000
18.52000 850.000
18.56000 911.000
18.60000 926.000
18.64000 928.000
18.68000 957.000
18.72000 913.000
18.76000 902.000
18.80000 942.000
18.84000 933.000
18.88000 934.000
18.92000 950.000
18.96000 984.000
19.00000 921.000
19.04000 994.000
19.08000 934.000
19.12000 914.000
19.16000 972.000
19.20000 1013.000
19.24000 976.000
19.28000 987.000
19.32000 1019.000
19.36000 1010.000
19.40000 1013.000
19.44000 1051.000
19.48000 986.000
19.52000 948.000
19.56000 1012.000
19.60000 975.000
19.64000 977.000
19.68000 1080.000
19.72000 1009.000
19.76000 968.000
19.80000 1046.000
19.84000 973.000
19.88000 1031.000
19.92000 1024.000
19.96000 1092.000
20.00000 1053.000
20.04000 1073.000
20.08000 1038.000
20.12000 1040.000
20.16000 1123.000
20.20000 1121.000
20.24000 1048.000
20.28000 1167.000
20.32000 1106.000
20.36000 1105.000
20.40000 1103.000
20.44000 1135.000
20.48000 1105.000
20.52000 1118.000
20.56000 1107.000
20.60000 1160.000
20.64000 1106.000
20.68000 1135.000
20.72000 1169.000
20.76000 1137.000
20.80000 1178.000
20.84000 1140.000
20.88000 1218.000
20.92000 1200.000
20.96000 1242.000
21.00000 1172.000
21.04000 1244.000
21.08000 1244.000
21.12000 1302.000
21.16000 1283.000
21.20000 1288.000
21.24000 1395.000
21.28000 1366.000
21.32000 1431.000
21.36000 1449.000
21.40000 1498.000
21.44000 1459.000
21.48000 1495.000
21.52000 1428.000
21.56000 1412.000
21.60000 1400.000
21.64000 1311.000
21.68000 1310.000
21.72000 1244.000
21.76000 1285.000
21.80000 1231.000
21.84000 1248.000
21.88000 1359.000
21.92000 1229.000
21.96000 1228.000
22.00000 1252.000
22.04000 1199.000
22.08000 1199.000
22.12000 1266.000
22.16000 1277.000
22.20000 1263.000
22.24000 1279.000
22.28000 1310.000
22.32000 1295.000
22.36000 1204.000
22.40000 1253.000
22.44000 1258.000
22.48000 1229.000
22.52000 1289.000
22.56000 1323.000
22.60000 1219.000
22.64000 1246.000
22.68000 1215.000
22.72000 1286.000
22.76000 1273.000
22.80000 1322.000
22.84000 1327.000
22.88000 1332.000
22.92000 1305.000
22.96000 1345.000
23.00000 1294.000
23.04000 1326.000
23.08000 1332.000
23.12000 1406.000
23.16000 1304.000
23.20000 1248.000
23.24000 1313.000
23.28000 1351.000
23.32000 1313.000
23.36000 1262.000
23.40000 1337.000
23.44000 1321.000
23.48000 1343.000
23.52000 1315.000
23.56000 1305.000
23.60000 1299.000
23.64000 1310.000
23.68000 1324.000
23.72000 1272.000
23.76000 1284.000
23.80000 1317.000
23.84000 1313.000
23.88000 1343.000
23.92000 1331.000
23.96000 1297.000
24.00000 1279.000
24.04000 1273.000
24.08000 1211.000
24.12000 1237.000
24.16000 1250.000
24.20000 1256.000
24.24000 1323.000
24.28000 1313.000
24.32000 1318.000
24.36000 1312.000
24.40000 1294.000
24.44000 1306.000
24.48000 1335.000
24.52000 1313.000
24.56000 1296.000
24.60000 1317.000
24.64000 1374.000
24.68000 1294.000
24.72000 1335.000
24.76000 1308.000
24.80000 1268.000
24.84000 1305.000
24.88000 1291.000
24.92000 1367.000
24.96000 1337.000
25.00000 1328.000
25.04000 1300.000
25.08000 1266.000
25.12000 1294.000
25.16000 1283.000
25.20000 1276.000
25.24000 1328.000
25.28000 1301.000
25.32000 1338.000
25.36000 1325.000
25.40000 1338.000
25.44000 1258.000
25.48000 1319.000
25.52000 1311.000
25.56000 1337.000
25.60000 1301.000
25.64000 1287.000
25.68000 1314.000
25.72000 1318.000
25.76000 1397.000
25.80000 1409.000
25.84000 1462.000
25.88000 1513.000
25.92000 1511.000
25.96000 1612.000
26.00000 1655.000
26.04000 1685.000
26.08000 1817.000
26.12000 1888.000
26.16000 1935.000
26.20000 2096.000
26.24000 2104.000
26.28000 2013.000
26.32000 1980.000
26.36000 1885.000
26.40000 1797.000
26.44000 1762.000
26.48000 1690.000
26.52000 1554.000
26.56000 1527.000
26.60000 1449.000
26.64000 1380.000
26.68000 1263.000
26.72000 1327.000
26.76000 1301.000
26.80000 1398.000
26.84000 1305.000
26.88000 1286.000
26.92000 1282.000
26.96000 1261.000
27.00000 1277.000
27.04000 1209.000
27.08000 1278.000
27.12000 1272.000
27.16000 1234.000
27.20000 1266.000
27.24000 1173.000
27.28000 1227.000
27.32000 1183.000
27.36000 1224.000
27.40000 1249.000
27.44000 1236.000
27.48000 1221.000
27.52000 1250.000
27.56000 1183.000
27.60000 1192.000
27.64000 1223.000
27.68000 1309.000
27.72000 1226.000
27.76000 1232.000
27.80000 1253.000
27.84000 1284.000
27.88000 1171.000
27.92000 1213.000
27.96000 1169.000
28.00000 1210.000
28.04000 1185.000
28.08000 1179.000
28.12000 1178.000
28.16000 1174.000
28.20000 1187.000
28.24000 1192.000
28.28000 1165.000
28.32000 1180.000
28.36000 1250.000
28.40000 1143.000
28.44000 1206.000
28.48000 1161.000
28.52000 1197.000
28.56000 1140.000
28.60000 1179.000
28.64000 1121.000
28.68000 1211.000
28.72000 1160.000
28.76000 1202.000
28.80000 1156.000
28.84000 1171.000
28.88000 1201.000
28.92000 1103.000
28.96000 1137.000
29.00000 1124.000
29.04000 1186.000
29.08000 1158.000
29.12000 1190.000
29.16000 1177.000
29.20000 1195.000
29.24000 1147.000
29.28000 1195.000
29.32000 1181.000
29.36000 1155.000
29.40000 1229.000
29.44000 1181.000
29.48000 1173.000
29.52000 1149.000
29.56000 1181.000
29.60000 1183.000
29.64000 1135.000
29.68000 1082.000
29.72000 1102.000
29.76000 1124.000
29.80000 1139.000
29.84000 1111.000
29.88000 1079.000
29.92000 1150.000
29.96000 1140.000
30.00000 1164.000
30.04000 1147.000
30.08000 1169.000
30.12000 1215.000
30.16000 1214.000
30.20000 1231.000
30.24000 1273.000
30.28000 1302.000
30.32000 1425.000
30.36000 1491.000
30.40000 1449.000
30.44000 1534.000
30.48000 1482.000
30.52000 1537.000
30.56000 1455.000
30.60000 1427.000
30.64000 1422.000
30.68000 1327.000
30.72000 1213.000
30.76000 1216.000
30.80000 1258.000
30.84000 1145.000
30.88000 1117.000
30.92000 1079.000
30.96000 1080.000
31.00000 1105.000
31.04000 1089.000
31.08000 1053.000
31.12000 1070.000
31.16000 1093.000
31.20000 1010.000
31.24000 1051.000
31.28000 1078.000
31.32000 1009.000
31.36000 1036.000
31.40000 1054.000
31.44000 994.000
31.48000 1054.000
31.52000 1024.000
31.56000 1007.000
31.60000 1016.000
31.64000 996.000
31.68000 951.000
31.72000 1016.000
31.76000 1024.000
31.80000 1000.000
31.84000 986.000
31.88000 922.000
31.92000 1000.000
31.96000 995.000
32.00000 1002.000
32.04000 978.000
32.08000 957.000
32.12000 967.000
32.16000 952.000
32.20000 936.000
32.24000 926.000
32.28000 902.000
32.32000 867.000
32.36000 910.000
32.40000 961.000
32.44000 980.000
32.48000 938.000
32.52000 904.000
32.56000 897.000
32.60000 889.000
32.64000 944.000
32.68000 894.000
32.72000 919.000
32.76000 877.000
32.80000 952.000
32.84000 919.000
32.88000 946.000
32.92000 916.000
32.96000 895.000
33.00000 865.000
33.04000 882.000
33.08000 885.000
33.12000 885.000
33.16000 897.000
33.20000 866.000
33.24000 887.000
33.28000 833.000
33.32000 837.000
33.36000 825.000
33.40000 888.000
33.44000 840.000
33.48000 934.000
33.52000 882.000
33.56000 860.000
33.60000 854.000
33.64000 838.000
33.68000 855.000
33.72000 822.000
33.76000 847.000
33.80000 872.000
33.84000 821.000
33.88000 873.000
33.92000 833.000
33.96000 851.000
34.00000 776.000
34.04000 892.000
34.08000 861.000
34.12000 877.000
34.16000 912.000
34.20000 874.000
34.24000 820.000
34.28000 823.000
34.32000 840.000
34.36000 840.000
34.40000 856.000
34.44000 830.000
34.48000 760.000
34.52000 757.000
34.56000 759.000
34.60000 761.000
34.64000 797.000
34.68000 715.000
34.72000 790.000
34.76000 809.000
34.80000 771.000
34.84000 764.000
34.88000 736.000
34.92000 780.000
34.96000 730.000
35.00000 753.000
35.04000 691.000
35.08000 703.000
35.12000 709.000
35.16000 751.000
35.20000 691.000
35.24000 680.000
35.28000 709.000
35.32000 747.000
35.36000 666.000
35.40000 721.000
35.44000 684.000
35.48000 693.000
35.52000 729.000
35.56000 721.000
35.60000 673.000
35.64000 673.000
35.68000 698.000
35.72000 661.000
35.76000 709.000
35.80000 676.000
35.84000 703.000
35.88000 737.000
35.92000 671.000
35.96000 678.000
36.00000 648.000
36.04000 658.000
36.08000 678.000
36.12000 636.000
36.16000 663.000
36.20000 621.000
36.24000 677.000
36.28000 650.000
36.32000 629.000
36.36000 648.000
36.40000 677.000
36.44000 627.000
36.48000 731.000
36.52000 623.000
36.56000 637.000
36.60000 648.000
36.64000 619.000
36.68000 687.000
36.72000 628.000
36.76000 660.000
36.80000 633.000
36.84000 654.000
36.88000 644.000
36.92000 625.000
36.96000 625.000
37.00000 609.000
37.04000 632.000
37.08000 599.000
37.12000 603.000
37.16000 621.000
37.20000 646.000
37.24000 601.000
37.28000 652.000
37.32000 587.000
37.36000 650.000
37.40000 626.000
37.44000 680.000
37.48000 617.000
37.52000 646.000
37.56000 659.000
37.60000 689.000
37.64000 714.000
37.68000 663.000
37.72000 634.000
37.76000 607.000
37.80000 619.000
37.84000 647.000
37.88000 588.000
37.92000 629.000
37.96000 608.000
38.00000 605.000
38.04000 581.000
38.08000 638.000
38.12000 577.000
38.16000 571.000
38.20000 571.000
38.24000 502.000
38.28000 552.000
38.32000 575.000
38.36000 543.000
38.40000 576.000
38.44000 591.000
38.48000 534.000
38.52000 476.000
38.56000 573.000
38.60000 533.000
38.64000 620.000
38.68000 573.000
38.72000 587.000
38.76000 555.000
38.80000 551.000
38.84000 506.000
38.88000 547.000
38.92000 564.000
38.96000 527.000
39.00000 522.000
39.04000 569.000
39.08000 537.000
39.12000 528.000
39.16000 523.000
39.20000 553.000
39.24000 537.000
39.28000 553.000
39.32000 529.000
39.36000 551.000
39.40000 536.000
39.44000 559.000
39.48000 500.000
39.52000 514.000
39.56000 548.000
39.60000 530.000
39.64000 548.000
39.68000 558.000
39.72000 616.000
39.76000 536.000
39.80000 548.000
39.84000 544.000
39.88000 516.000
39.92000 525.000
39.96000 542.000
40.00000 569.000
40.04000 538.000
40.08000 573.000
40.12000 520.000
40.16000 554.000
40.20000 560.000
40.24000 557.000
40.28000 518.000
40.32000 482.000
40.36000 529.000
40.40000 526.000
40.44000 510.000
40.48000 490.000
40.52000 569.000
40.56000 532.000
40.60000 530.000
40.64000 582.000
40.68000 545.000
40.72000 549.000
40.76000 555.000
40.80000 530.000
40.84000 543.000
40.88000 582.000
40.92000 508.000
40.96000 562.000
41.00000 542.000
41.04000 517.000
41.08000 529.000
41.12000 482.000
41.16000 524.000
41.20000 532.000
41.24000 544.000
41.28000 601.000
41.32000 555.000
41.36000 516.000
41.40000 544.000
41.44000 533.000
41.48000 538.000
41.52000 487.000
41.56000 540.000
41.60000 533.000
41.64000 558.000
41.68000 537.000
41.72000 570.000
41.76000 519.000
41.80000 552.000
41.84000 553.000
41.88000 592.000
41.92000 536.000
41.96000 528.000
42.00000 538.000
42.04000 543.000
42.08000 579.000
42.12000 549.000
42.16000 569.000
42.20000 492.000
42.24000 545.000
42.28000 584.000
42.32000 568.000
42.36000 573.000
42.40000 515.000
42.44000 562.000
42.48000 603.000
42.52000 529.000
42.56000 564.000
42.60000 573.000
42.64000 579.000
42.68000 586.000
42.72000 556.000
42.76000 569.000
42.80000 568.000
42.84000 596.000
42.88000 527.000
42.92000 564.000
42.96000 584.000
43.00000 545.000
43.04000 546.000
43.08000 559.000
43.12000 565.000
43.16000 523.000
43.20000 565.000
43.24000 619.000
43.28000 572.000
43.32000 589.000
43.36000 627.000
43.40000 663.000
43.44000 648.000
43.48000 678.000
43.52000 672.000
43.56000 676.000
43.60000 698.000
43.64000 729.000
43.68000 705.000
43.72000 753.000
43.76000 722.000
43.80000 722.000
43.84000 723.000
43.88000 689.000
43.92000 634.000
43.96000 622.000
44.00000 617.000
44.04000 575.000
44.08000 587.000
44.12000 622.000
44.16000 555.000
44.20000 588.000
44.24000 587.000
44.28000 544.000
44.32000 527.000
44.36000 559.000
44.40000 514.000
44.44000 548.000
44.48000 548.000
44.52000 498.000
44.56000 530.000
44.60000 587.000
44.64000 521.000
44.68000 545.000
44.72000 524.000
44.76000 569.000
44.80000 526.000
44.84000 494.000
44.88000 537.000
44.92000 537.000
44.96000 549.000
45.00000 549.000
45.04000 535.000
45.08000 509.000
45.12000 519.000
45.16000 497.000
45.20000 541.000
45.24000 496.000
45.28000 542.000
45.32000 507.000
45.36000 470.000
45.40000 483.000
45.44000 492.000
45.48000 536.000
45.52000 511.000
45.56000 518.000
45.60000 525.000
45.64000 508.000
45.68000 503.000
45.72000 541.000
45.76000 519.000
45.80000 547.000
45.84000 495.000
45.88000 518.000
45.92000 504.000
45.96000 525.000
46.00000 510.000
46.04000 505.000
46.08000 519.000
46.12000 495.000
46.16000 525.000
46.20000 532.000
46.24000 564.000
46.28000 520.000
46.32000 485.000
46.36000 504.000
46.40000 499.000
46.44000 516.000
46.48000 526.000
46.52000 526.000
46.56000 518.000
46.60000 479.000
46.64000 492.000
46.68000 492.000
46.72000 496.000
46.76000 496.000
46.80000 500.000
46.84000 481.000
46.88000 488.000
46.92000 528.000
46.96000 503.000
47.00000 509.000
47.04000 512.000
47.08000 493.000
47.12000 501.000
47.16000 500.000
47.20000 494.000
47.24000 477.000
47.28000 495.000
47.32000 474.000
47.36000 482.000
47.40000 519.000
47.44000 495.000
47.48000 473.000
47.52000 483.000
47.56000 486.000
47.60000 505.000
47.64000 522.000
47.68000 541.000
47.72000 455.000
47.76000 494.000
47.80000 544.000
47.84000 478.000
47.88000 456.000
47.92000 469.000
47.96000 432.000
48.00000 486.000
48.04000 447.000
48.08000 495.000
48.12000 461.000
48.16000 454.000
48.20000 493.000
48.24000 473.000
48.28000 479.000
48.32000 492.000
48.36000 480.000
48.40000 455.000
48.44000 442.000
48.48000 482.000
48.52000 473.000
48.56000 464.000
48.60000 464.000
48.64000 458.000
48.68000 496.000
48.72000 469.000
48.76000 445.000
48.80000 477.000
48.84000 451.000
48.88000 512.000
48.92000 457.000
48.96000 480.000
49.00000 460.000
49.04000 487.000
49.08000 503.000
49.12000 487.000
49.16000 455.000
49.20000 455.000
49.24000 462.000
49.28000 475.000
49.32000 479.000
49.36000 465.000
49.40000 492.000
49.44000 481.000
49.48000 472.000
49.52000 490.000
49.56000 488.000
49.60000 469.000
49.64000 446.000
49.68000 476.000
49.72000 470.000
49.76000 513.000
49.80000 470.000
49.84000 463.000
49.88000 447.000
49.92000 477.000
49.96000 458.000
50.00000 466.000
50.04000 484.000
50.08000 482.000
50.12000 445.000
50.16000 430.000
50.20000 436.000
50.24000 454.000
50.28000 442.000
50.32000 445.000
50.36000 422.000
50.40000 467.000
50.44000 485.000
50.48000 458.000
50.52000 451.000
50.56000 453.000
50.60000 430.000
50.64000 479.000
50.68000 448.000
50.72000 448.000
50.76000 456.000
50.80000 480.000
50.84000 453.000
50.88000 462.000
50.92000 450.000
50.96000 473.000
51.00000 462.000
51.04000 460.000
51.08000 471.000
51.12000 419.000
51.16000 421.000
51.20000 465.000
51.24000 485.000
51.28000 498.000
51.32000 502.000
51.36000 420.000
51.40000 477.000
51.44000 509.000
51.48000 461.000
51.52000 472.000
51.56000 450.000
51.60000 454.000
51.64000 502.000
51.68000 492.000
51.72000 463.000
51.76000 510.000
51.80000 467.000
51.84000 487.000
51.88000 539.000
51.92000 483.000
51.96000 474.000
52.00000 469.000
52.04000 436.000
52.08000 470.000
52.12000 490.000
52.16000 428.000
52.20000 494.000
52.24000 458.000
52.28000 472.000
52.32000 464.000
52.36000 441.000
52.40000 438.000
52.44000 449.000
52.48000 443.000
52.52000 432.000
52.56000 493.000
52.60000 454.000
52.64000 437.000
52.68000 424.000
52.72000 462.000
52.76000 457.000
52.80000 469.000
52.84000 470.000
52.88000 469.000
52.92000 458.000
52.96000 419.000
53.00000 492.000
53.04000 433.000
53.08000 467.000
53.12000 420.000
53.16000 474.000
53.20000 483.000
53.24000 421.000
53.28000 458.000
53.32000 430.000
53.36000 458.000
53.40000 443.000
53.44000 454.000
53.48000 456.000
53.52000 454.000
53.56000 449.000
53.60000 461.000
53.64000 448.000
53.68000 475.000
53.72000 451.000
53.76000 456.000
53.80000 440.000
53.84000 505.000
53.88000 518.000
53.92000 480.000
53.96000 489.000
54.00000 488.000
54.04000 480.000
54.08000 509.000
54.12000 486.000
54.16000 494.000
54.20000 505.000
54.24000 495.000
54.28000 467.000
54.32000 433.000
54.36000 459.000
54.40000 453.000
54.44000 469.000
54.48000 462.000
54.52000 477.000
54.56000 441.000
54.60000 454.000
54.64000 455.000
54.68000 471.000
54.72000 447.000
54.76000 479.000
54.80000 439.000
54.84000 472.000
54.88000 487.000
54.92000 441.000
54.96000 481.000
55.00000 471.000
55.04000 420.000
55.08000 427.000
55.12000 471.000
55.16000 438.000
55.20000 441.000
55.24000 430.000
55.28000 426.000
55.32000 443.000
55.36000 399.000
55.40000 455.000
55.44000 482.000
55.48000 430.000
55.52000 419.000
55.56000 430.000
55.60000 416.000
55.64000 434.000
55.68000 462.000
55.72000 431.000
55.76000 486.000
55.80000 452.000
55.84000 466.000
55.88000 453.000
55.92000 485.000
55.96000 466.000
56.00000 399.000
56.04000 425.000
56.08000 415.000
56.12000 438.000
56.16000 458.000
56.20000 449.000
56.24000 436.000
56.28000 446.000
56.32000 447.000
56.36000 430.000
56.40000 471.000
56.44000 450.000
56.48000 460.000
56.52000 438.000
56.56000 440.000
56.60000 463.000
56.64000 418.000
56.68000 464.000
56.72000 433.000
56.76000 468.000
56.80000 431.000
56.84000 437.000
56.88000 406.000
56.92000 416.000
56.96000 444.000
57.00000 375.000
57.04000 438.000
57.08000 408.000
57.12000 439.000
57.16000 433.000
57.20000 412.000
57.24000 410.000
57.28000 418.000
57.32000 426.000
57.36000 451.000
57.40000 472.000
57.44000 444.000
57.48000 424.000
57.52000 424.000
57.56000 425.000
57.60000 446.000
57.64000 415.000
57.68000 495.000
57.72000 420.000
57.76000 443.000
57.80000 422.000
57.84000 440.000
57.88000 391.000
57.92000 467.000
57.96000 441.000
58.00000 412.000
58.04000 452.000
58.08000 466.000
58.12000 449.000
58.16000 436.000
58.20000 481.000
58.24000 446.000
58.28000 437.000
58.32000 453.000
58.36000 439.000
58.40000 455.000
58.44000 471.000
58.48000 470.000
58.52000 444.000
58.56000 428.000
58.60000 455.000
58.64000 441.000
58.68000 472.000
58.72000 456.000
58.76000 425.000
58.80000 457.000
58.84000 404.000
58.88000 482.000
58.92000 429.000
58.96000 452.000
59.00000 423.000
59.04000 467.000
59.08000 432.000
59.12000 479.000
59.16000 464.000
59.20000 433.000
59.24000 466.000
59.28000 438.000
59.32000 457.000
59.36000 426.000
59.40000 429.000
59.44000 434.000
59.48000 455.000
59.52000 455.000
59.56000 428.000
59.60000 437.000
59.64000 442.000
59.68000 454.000
59.72000 399.000
59.76000 491.000
59.80000 416.000
59.84000 443.000
59.88000 472.000
59.92000 449.000