File: XRD/58.xy
5.00000 1677.000
5.08000 1584.000
5.16000 1551.000
5.24000 1467.000
5.32000 1411.000
5.40000 1401.000
5.48000 1407.000
5.56000 1373.000
5.64000 1255.000
5.72000 1294.000
5.80000 1329.000
5.88000 1247.000
5.96000 1225.000
6.04000 1227.000
6.12000 1163.000
6.20000 1184.000
6.28000 1123.000
6.36000 1110.000
6.44000 1126.000
6.52000 1093.000
6.60000 1111.000
6.68000 1102.000
6.76000 1038.000
6.84000 1071.000
6.92000 1029.000
7.00000 1040.000
7.08000 1038.000
7.16000 1004.000
7.24000 1008.000
7.32000 1020.000
7.40000 962.000
7.48000 959.000
7.56000 955.000
7.64000 959.000
7.72000 926.000
7.80000 954.000
7.88000 942.000
7.96000 858.000
8.04000 910.000
8.12000 951.000
8.20000 888.000
8.28000 896.000
8.36000 884.000
8.44000 926.000
8.52000 921.000
8.60000 848.000
8.68000 943.000
8.76000 857.000
8.84000 889.000
8.92000 883.000
9.00000 804.000
9.08000 822.000
9.16000 851.000
9.24000 732.000
9.32000 818.000
9.40000 792.000
9.48000 755.000
9.56000 755.000
9.64000 763.000
9.72000 727.000
9.80000 777.000
9.88000 777.000
9.96000 778.000
10.04000 734.000
10.12000 754.000
10.20000 757.000
10.28000 734.000
10.36000 747.000
10.44000 684.000
10.52000 697.000
10.60000 741.000
10.68000 741.000
10.76000 705.000
10.84000 680.000
10.92000 736.000
11.00000 727.000
11.08000 640.000
11.16000 721.000
11.24000 712.000
11.32000 688.000
11.40000 709.000
11.48000 666.000
11.56000 675.000
11.64000 696.000
11.72000 672.000
11.80000 701.000
11.88000 705.000
11.96000 741.000
12.04000 719.000
12.12000 694.000
12.20000 825.000
12.28000 733.000
12.36000 771.000
12.44000 771.000
12.52000 768.000
12.60000 668.000
12.68000 640.000
12.76000 651.000
12.84000 683.000
12.92000 639.000
13.00000 687.000
13.08000 671.000
13.16000 661.000
13.24000 662.000
13.32000 683.000
13.40000 678.000
13.48000 683.000
13.56000 650.000
13.64000 655.000
13.72000 639.000
13.80000 659.000
13.88000 664.000
13.96000 657.000
14.04000 672.000
14.12000 697.000
14.20000 663.000
14.28000 679.000
14.36000 683.000
14.44000 670.000
14.52000 701.000
14.60000 745.000
14.68000 743.000
14.76000 759.000
14.84000 726.000
14.92000 785.000
15.00000 797.000
15.08000 861.000
15.16000 819.000
15.24000 792.000
15.32000 826.000
15.40000 818.000
15.48000 732.000
15.56000 750.000
15.64000 725.000
15.72000 749.000
15.80000 705.000
15.88000 746.000
15.96000 756.000
16.04000 748.000
16.12000 712.000
16.20000 682.000
16.28000 733.000
16.36000 704.000
16.44000 751.000
16.52000 781.000
16.60000 750.000
16.68000 744.000
16.76000 760.000
16.84000 770.000
16.92000 738.000
17.00000 769.000
17.08000 806.000
17.16000 828.000
17.24000 846.000
17.32000 887.000
17.40000 871.000
17.48000 922.000
17.56000 889.000
17.64000 926.000
17.72000 941.000
17.80000 885.000
17.88000 875.000
17.96000 787.000
18.04000 859.000
18.12000 892.000
18.20000 909.000
18.28000 842.000
18.36000 864.000
18.44000 886.000
18.52000 878.000
18.60000 858.000
18.68000 864.000
18.76000 913.000
18.84000 918.000
18.92000 907.000
19.00000 957.000
19.08000 977.000
19.16000 904.000
19.24000 882.000
19.32000 970.000
19.40000 892.000
19.48000 977.000
19.56000 1001.000
19.64000 995.000
19.72000 976.000
19.80000 993.000
19.88000 1005.000
19.96000 953.000
20.04000 1025.000
20.12000 996.000
20.20000 1054.000
20.28000 1009.000
20.36000 1041.000
20.44000 1091.000
20.52000 1041.000
20.60000 1079.000
20.68000 1142.000
20.76000 1072.000
20.84000 1088.000
20.92000 1101.000
21.00000 1113.000
21.08000 1044.000
21.16000 1155.000
21.24000 1233.000
21.32000 1185.000
21.40000 1319.000
21.48000 1379.000
21.56000 1398.000
21.64000 1426.000
21.72000 1385.000
21.80000 1293.000
21.88000 1214.000
21.96000 1238.000
22.04000 1238.000
22.12000 1127.000
22.20000 1211.000
22.28000 1237.000
22.36000 1198.000
22.44000 1241.000
22.52000 1253.000
22.60000 1225.000
22.68000 1273.000
22.76000 1263.000
22.84000 1190.000
22.92000 1201.000
23.00000 1200.000
23.08000 1245.000
23.16000 1312.000
23.24000 1249.000
23.32000 1255.000
23.40000 1258.000
23.48000 1264.000
23.56000 1234.000
23.64000 1261.000
23.72000 1222.000
23.80000 1247.000
23.88000 1209.000
23.96000 1223.000
24.04000 1235.000
24.12000 1234.000
24.20000 1206.000
24.28000 1207.000
24.36000 1175.000
24.44000 1195.000
24.52000 1220.000
24.60000 1217.000
24.68000 1236.000
24.76000 1279.000
24.84000 1243.000
24.92000 1181.000
25.00000 1243.000
25.08000 1271.000
25.16000 1263.000
25.24000 1194.000
25.32000 1237.000
25.40000 1290.000
25.48000 1180.000
25.56000 1198.000
25.64000 1227.000
25.72000 1191.000
25.80000 1206.000
25.88000 1306.000
25.96000 1303.000
26.04000 1321.000
26.12000 1410.000
26.20000 1511.000
26.28000 1593.000
26.36000 1660.000
26.44000 1803.000
26.52000 1743.000
26.60000 1691.000
26.68000 1543.000
26.76000 1392.000
26.84000 1356.000
26.92000 1274.000
27.00000 1264.000
27.08000 1179.000
27.16000 1160.000
27.24000 1173.000
27.32000 1241.000
27.40000 1221.000
27.48000 1153.000
27.56000 1150.000
27.64000 1125.000
27.72000 1170.000
27.80000 1175.000
27.88000 1170.000
27.96000 1142.000
28.04000 1193.000
28.12000 1188.000
28.20000 1159.000
28.28000 1123.000
28.36000 1209.000
28.44000 1111.000
28.52000 1110.000
28.60000 1097.000
28.68000 1090.000
28.76000 1116.000
28.84000 1108.000
28.92000 1140.000
29.00000 1098.000
29.08000 1116.000
29.16000 1169.000
29.24000 1100.000
29.32000 1112.000
29.40000 1141.000
29.48000 1100.000
29.56000 1105.000
29.64000 1105.000
29.72000 1098.000
29.80000 1100.000
29.88000 1066.000
29.96000 1101.000
30.04000 1083.000
30.12000 1144.000
30.20000 1162.000
30.28000 1184.000
30.36000 1257.000
30.44000 1291.000
30.52000 1338.000
30.60000 1407.000
30.68000 1420.000
30.76000 1415.000
30.84000 1340.000
30.92000 1289.000
31.00000 1218.000
31.08000 1163.000
31.16000 1098.000
31.24000 1065.000
31.32000 1033.000
31.40000 1041.000
31.48000 989.000
31.56000 1004.000
31.64000 976.000
31.72000 979.000
31.80000 961.000
31.88000 983.000
31.96000 929.000
32.04000 932.000
32.12000 930.000
32.20000 876.000
32.28000 928.000
32.36000 871.000
32.44000 904.000
32.52000 857.000
32.60000 891.000
32.68000 855.000
32.76000 884.000
32.84000 937.000
32.92000 838.000
33.00000 880.000
33.08000 803.000
33.16000 836.000
33.24000 803.000
33.32000 844.000
33.40000 863.000
33.48000 860.000
33.56000 846.000
33.64000 827.000
33.72000 800.000
33.80000 848.000
33.88000 820.000
33.96000 744.000
34.04000 813.000
34.12000 834.000
34.20000 796.000
34.28000 760.000
34.36000 798.000
34.44000 837.000
34.52000 780.000
34.60000 760.000
34.68000 705.000
34.76000 697.000
34.84000 685.000
34.92000 704.000
35.00000 722.000
35.08000 704.000
35.16000 704.000
35.24000 691.000
35.32000 683.000
35.40000 724.000
35.48000 667.000
35.56000 672.000
35.64000 657.000
35.72000 666.000
35.80000 640.000
35.88000 684.000
35.96000 594.000
36.04000 638.000
36.12000 649.000
36.20000 628.000
36.28000 637.000
36.36000 617.000
36.44000 602.000
36.52000 588.000
36.60000 619.000
36.68000 607.000
36.76000 609.000
36.84000 618.000
36.92000 608.000
37.00000 594.000
37.08000 592.000
37.16000 565.000
37.24000 604.000
37.32000 568.000
37.40000 563.000
37.48000 600.000
37.56000 630.000
37.64000 594.000
37.72000 593.000
37.80000 587.000
37.88000 611.000
37.96000 597.000
38.04000 571.000
38.12000 622.000
38.20000 571.000
38.28000 563.000
38.36000 573.000
38.44000 563.000
38.52000 563.000
38.60000 565.000
38.68000 532.000
38.76000 488.000
38.84000 492.000
38.92000 596.000
39.00000 545.000
39.08000 543.000
39.16000 512.000
39.24000 542.000
39.32000 538.000
39.40000 514.000
39.48000 498.000
39.56000 499.000
39.64000 513.000
39.72000 520.000
39.80000 533.000
39.88000 546.000
39.96000 474.000
40.04000 509.000
40.12000 553.000
40.20000 531.000
40.28000 516.000
40.36000 552.000
40.44000 497.000
40.52000 497.000
40.60000 544.000
40.68000 491.000
40.76000 501.000
40.84000 479.000
40.92000 554.000
41.00000 529.000
41.08000 504.000
41.16000 522.000
41.24000 510.000
41.32000 495.000
41.40000 531.000
41.48000 483.000
41.56000 553.000
41.64000 527.000
41.72000 535.000
41.80000 501.000
41.88000 534.000
41.96000 576.000
42.04000 530.000
42.12000 540.000
42.20000 485.000
42.28000 520.000
42.36000 528.000
42.44000 491.000
42.52000 562.000
42.60000 544.000
42.68000 510.000
42.76000 519.000
42.84000 532.000
42.92000 476.000
43.00000 539.000
43.08000 521.000
43.16000 529.000
43.24000 496.000
43.32000 515.000
43.40000 530.000
43.48000 563.000
43.56000 557.000
43.64000 596.000
43.72000 649.000
43.80000 637.000
43.88000 675.000
43.96000 699.000
44.04000 692.000
44.12000 670.000
44.20000 619.000
44.28000 595.000
44.36000 541.000
44.44000 536.000
44.52000 581.000
44.60000 565.000
44.68000 597.000
44.76000 575.000
44.84000 550.000
44.92000 486.000
45.00000 553.000
45.08000 560.000
45.16000 536.000
45.24000 484.000
45.32000 538.000
45.40000 492.000
45.48000 461.000
45.56000 506.000
45.64000 517.000
45.72000 489.000
45.80000 465.000
45.88000 531.000
45.96000 514.000
46.04000 496.000
46.12000 499.000
46.20000 468.000
46.28000 509.000
46.36000 479.000
46.44000 491.000
46.52000 482.000
46.60000 474.000
46.68000 479.000
46.76000 487.000
46.84000 489.000
46.92000 450.000
47.00000 456.000
47.08000 486.000
47.16000 477.000
47.24000 481.000
47.32000 427.000
47.40000 465.000
47.48000 471.000
47.56000 474.000
47.64000 464.000
47.72000 493.000
47.80000 433.000
47.88000 467.000
47.96000 472.000
48.04000 465.000
48.12000 447.000
48.20000 477.000
48.28000 448.000
48.36000 421.000
48.44000 477.000
48.52000 465.000
48.60000 428.000
48.68000 445.000
48.76000 457.000
48.84000 439.000
48.92000 437.000
49.00000 443.000
49.08000 473.000
49.16000 428.000
49.24000 439.000
49.32000 416.000
49.40000 438.000
49.48000 480.000
49.56000 456.000
49.64000 449.000
49.72000 471.000
49.80000 454.000
49.88000 418.000
49.96000 419.000
50.04000 455.000
50.12000 461.000
50.20000 426.000
50.28000 463.000
50.36000 432.000
50.44000 453.000
50.52000 441.000
50.60000 464.000
50.68000 447.000
50.76000 396.000
50.84000 429.000
50.92000 440.000
51.00000 422.000
51.08000 426.000
51.16000 403.000
51.24000 418.000
51.32000 431.000
51.40000 455.000
51.48000 410.000
51.56000 415.000
51.64000 437.000
51.72000 450.000
51.80000 445.000
51.88000 451.000
51.96000 480.000
52.04000 430.000
52.12000 497.000
52.20000 457.000
52.28000 484.000
52.36000 476.000
52.44000 473.000
52.52000 454.000
52.60000 466.000
52.68000 437.000
52.76000 400.000
52.84000 410.000
52.92000 404.000
53.00000 443.000
53.08000 439.000
53.16000 464.000
53.24000 454.000
53.32000 462.000
53.40000 408.000
53.48000 466.000
53.56000 460.000
53.64000 407.000
53.72000 411.000
53.80000 429.000
53.88000 403.000
53.96000 442.000
54.04000 418.000
54.12000 446.000
54.20000 423.000
54.28000 440.000
54.36000 473.000
54.44000 451.000
54.52000 487.000
54.60000 424.000
54.68000 474.000
54.76000 491.000
54.84000 414.000
54.92000 430.000
55.00000 439.000
55.08000 428.000
55.16000 412.000
55.24000 415.000
55.32000 447.000
55.40000 431.000
55.48000 390.000
55.56000 418.000
55.64000 436.000
55.72000 385.000
55.80000 399.000
55.88000 429.000
55.96000 392.000
56.04000 469.000
56.12000 412.000
56.20000 432.000
56.28000 429.000
56.36000 415.000
56.44000 441.000
56.52000 448.000
56.60000 403.000
56.68000 419.000
56.76000 464.000
56.84000 435.000
56.92000 422.000
57.00000 420.000
57.08000 425.000
57.16000 429.000
57.24000 413.000
57.32000 462.000
57.40000 448.000
57.48000 433.000
57.56000 431.000
57.64000 449.000
57.72000 431.000
57.80000 418.000
57.88000 387.000
57.96000 405.000
58.04000 460.000
58.12000 433.000
58.20000 402.000
58.28000 406.000
58.36000 415.000
58.44000 407.000
58.52000 444.000
58.60000 421.000
58.68000 391.000
58.76000 411.000
58.84000 409.000
58.92000 439.000
59.00000 430.000
59.08000 435.000
59.16000 398.000
59.24000 459.000
59.32000 434.000
59.40000 437.000
59.48000 453.000
59.56000 390.000
59.64000 457.000
59.72000 437.000
59.80000 441.000
59.88000 449.000
59.96000 470.000
60.04000 428.000
60.12000 436.000
60.20000 407.000
60.28000 435.000
60.36000 447.000
60.44000 380.000
60.52000 427.000
60.60000 436.000
60.68000 406.000
60.76000 418.000
60.84000 394.000
60.92000 430.000
61.00000 421.000
61.08000 414.000
61.16000 382.000
61.24000 394.000
61.32000 388.000
61.40000 438.000
61.48000 409.000
61.56000 400.000
61.64000 418.000
61.72000 443.000
61.80000 430.000
61.88000 399.000
61.96000 439.000
62.04000 392.000
62.12000 422.000
62.20000 380.000
62.28000 400.000
62.36000 444.000
62.44000 411.000
62.52000 418.000
62.60000 414.000
62.68000 418.000
62.76000 413.000
62.84000 402.000
62.92000 394.000
63.00000 386.000
63.08000 364.000
63.16000 429.000
63.24000 413.000
63.32000 419.000
63.40000 399.000
63.48000 417.000
63.56000 415.000
63.64000 376.000
63.72000 405.000
63.80000 411.000
63.88000 409.000
63.96000 431.000
64.04000 420.000
64.12000 398.000
64.20000 442.000
64.28000 396.000
64.36000 416.000
64.44000 409.000
64.52000 407.000
64.60000 370.000
64.68000 413.000
64.76000 417.000
64.84000 405.000
64.92000 362.000
65.00000 367.000
65.08000 365.000
65.16000 368.000
65.24000 392.000
65.32000 405.000
65.40000 401.000
65.48000 421.000
65.56000 402.000
65.64000 416.000
65.72000 372.000
65.80000 450.000
65.88000 386.000
65.96000 400.000
66.04000 409.000
66.12000 401.000
66.20000 364.000
66.28000 387.000
66.36000 369.000
66.44000 405.000
66.52000 340.000
66.60000 377.000
66.68000 408.000
66.76000 405.000
66.84000 394.000
66.92000 372.000
67.00000 402.000
67.08000 380.000
67.16000 372.000
67.24000 373.000
67.32000 344.000
67.40000 345.000
67.48000 365.000
67.56000 402.000
67.64000 394.000
67.72000 350.000
67.80000 345.000
67.88000 344.000
67.96000 386.000
68.04000 364.000
68.12000 378.000
68.20000 368.000
68.28000 381.000
68.36000 374.000
68.44000 395.000
68.52000 384.000
68.60000 360.000
68.68000 383.000
68.76000 359.000
68.84000 403.000
68.92000 390.000
69.00000 353.000
69.08000 346.000
69.16000 351.000
69.24000 352.000
69.32000 345.000
69.40000 344.000
69.48000 349.000
69.56000 375.000
69.64000 333.000
69.72000 339.000
69.80000 345.000
69.88000 396.000
69.92000 410.000