File: XRD/59.xy
5.00000 1454.000
5.08000 1430.000
5.16000 1384.000
5.24000 1365.000
5.32000 1376.000
5.40000 1267.000
5.48000 1339.000
5.56000 1275.000
5.64000 1304.000
5.72000 1214.000
5.80000 1232.000
5.88000 1206.000
5.96000 1267.000
6.04000 1153.000
6.12000 1188.000
6.20000 1132.000
6.28000 1139.000
6.36000 1161.000
6.44000 1075.000
6.52000 1051.000
6.60000 1093.000
6.68000 1078.000
6.76000 1077.000
6.84000 1077.000
6.92000 1022.000
7.00000 1110.000
7.08000 997.000
7.16000 1000.000
7.24000 1004.000
7.32000 1018.000
7.40000 981.000
7.48000 985.000
7.56000 941.000
7.64000 1015.000
7.72000 914.000
7.80000 911.000
7.88000 978.000
7.96000 957.000
8.04000 900.000
8.12000 933.000
8.20000 945.000
8.28000 924.000
8.36000 880.000
8.44000 902.000
8.52000 915.000
8.60000 858.000
8.68000 968.000
8.76000 881.000
8.84000 908.000
8.92000 864.000
9.00000 814.000
9.08000 826.000
9.16000 813.000
9.24000 859.000
9.32000 794.000
9.40000 815.000
9.48000 782.000
9.56000 808.000
9.64000 768.000
9.72000 777.000
9.80000 702.000
9.88000 713.000
9.96000 760.000
10.04000 772.000
10.12000 734.000
10.20000 718.000
10.28000 697.000
10.36000 755.000
10.44000 742.000
10.52000 762.000
10.60000 743.000
10.68000 687.000
10.76000 732.000
10.84000 748.000
10.92000 709.000
11.00000 732.000
11.08000 691.000
11.16000 646.000
11.24000 711.000
11.32000 644.000
11.40000 647.000
11.48000 718.000
11.56000 654.000
11.64000 682.000
11.72000 662.000
11.80000 662.000
11.88000 691.000
11.96000 724.000
12.04000 685.000
12.12000 724.000
12.20000 730.000
12.28000 728.000
12.36000 786.000
12.44000 738.000
12.52000 809.000
12.60000 756.000
12.68000 717.000
12.76000 696.000
12.84000 707.000
12.92000 669.000
13.00000 675.000
13.08000 670.000
13.16000 641.000
13.24000 683.000
13.32000 692.000
13.40000 677.000
13.48000 672.000
13.56000 685.000
13.64000 693.000
13.72000 626.000
13.80000 702.000
13.88000 659.000
13.96000 728.000
14.04000 631.000
14.12000 675.000
14.20000 648.000
14.28000 698.000
14.36000 696.000
14.44000 740.000
14.52000 690.000
14.60000 689.000
14.68000 714.000
14.76000 699.000
14.84000 775.000
14.92000 778.000
15.00000 799.000
15.08000 843.000
15.16000 873.000
15.24000 916.000
15.32000 813.000
15.40000 874.000
15.48000 841.000
15.56000 831.000
15.64000 746.000
15.72000 703.000
15.80000 733.000
15.88000 741.000
15.96000 712.000
16.04000 706.000
16.12000 698.000
16.20000 746.000
16.28000 693.000
16.36000 711.000
16.44000 757.000
16.52000 731.000
16.60000 720.000
16.68000 755.000
16.76000 778.000
16.84000 767.000
16.92000 788.000
17.00000 737.000
17.08000 751.000
17.16000 826.000
17.24000 829.000
17.32000 887.000
17.40000 808.000
17.48000 842.000
17.56000 931.000
17.64000 964.000
17.72000 909.000
17.80000 901.000
17.88000 906.000
17.96000 873.000
18.04000 811.000
18.12000 847.000
18.20000 855.000
18.28000 854.000
18.36000 893.000
18.44000 875.000
18.52000 882.000
18.60000 851.000
18.68000 897.000
18.76000 903.000
18.84000 938.000
18.92000 915.000
19.00000 860.000
19.08000 877.000
19.16000 900.000
19.24000 968.000
19.32000 924.000
19.40000 943.000
19.48000 957.000
19.56000 904.000
19.64000 952.000
19.72000 996.000
19.80000 984.000
19.88000 998.000
19.96000 1014.000
20.04000 1019.000
20.12000 975.000
20.20000 1020.000
20.28000 1057.000
20.36000 1027.000
20.44000 988.000
20.52000 1052.000
20.60000 1045.000
20.68000 1071.000
20.76000 1150.000
20.84000 1041.000
20.92000 1121.000
21.00000 1086.000
21.08000 1096.000
21.16000 1098.000
21.24000 1183.000
21.32000 1207.000
21.40000 1174.000
21.48000 1265.000
21.56000 1304.000
21.64000 1437.000
21.72000 1544.000
21.80000 1536.000
21.88000 1388.000
21.96000 1372.000
22.04000 1280.000
22.12000 1268.000
22.20000 1256.000
22.28000 1201.000
22.36000 1144.000
22.44000 1182.000
22.52000 1138.000
22.60000 1197.000
22.68000 1228.000
22.76000 1199.000
22.84000 1232.000
22.92000 1210.000
23.00000 1144.000
23.08000 1275.000
23.16000 1212.000
23.24000 1215.000
23.32000 1214.000
23.40000 1257.000
23.48000 1239.000
23.56000 1252.000
23.64000 1296.000
23.72000 1268.000
23.80000 1277.000
23.88000 1218.000
23.96000 1158.000
24.04000 1216.000
24.12000 1190.000
24.20000 1251.000
24.28000 1236.000
24.36000 1255.000
24.44000 1268.000
24.52000 1267.000
24.60000 1175.000
24.68000 1223.000
24.76000 1200.000
24.84000 1225.000
24.92000 1217.000
25.00000 1229.000
25.08000 1258.000
25.16000 1235.000
25.24000 1198.000
25.32000 1269.000
25.40000 1152.000
25.48000 1214.000
25.56000 1226.000
25.64000 1217.000
25.72000 1256.000
25.80000 1189.000
25.88000 1257.000
25.96000 1214.000
26.04000 1238.000
26.12000 1209.000
26.20000 1303.000
26.28000 1294.000
26.36000 1403.000
26.44000 1500.000
26.52000 1618.000
26.60000 1763.000
26.68000 1858.000
26.76000 1839.000
26.84000 1733.000
26.92000 1623.000
27.00000 1408.000
27.08000 1446.000
27.16000 1271.000
27.24000 1264.000
27.32000 1227.000
27.40000 1179.000
27.48000 1234.000
27.56000 1223.000
27.64000 1191.000
27.72000 1161.000
27.80000 1114.000
27.88000 1179.000
27.96000 1166.000
28.04000 1144.000
28.12000 1161.000
28.20000 1166.000
28.28000 1159.000
28.36000 1155.000
28.44000 1115.000
28.52000 1156.000
28.60000 1136.000
28.68000 1119.000
28.76000 1152.000
28.84000 1088.000
28.92000 1057.000
29.00000 1071.000
29.08000 1062.000
29.16000 1088.000
29.24000 1130.000
29.32000 1084.000
29.40000 1116.000
29.48000 1059.000
29.56000 1064.000
29.64000 1105.000
29.72000 1098.000
29.80000 1054.000
29.88000 1113.000
29.96000 1034.000
30.04000 1026.000
30.12000 1083.000
30.20000 1074.000
30.28000 1119.000
30.36000 1143.000
30.44000 1133.000
30.52000 1122.000
30.60000 1261.000
30.68000 1279.000
30.76000 1394.000
30.84000 1498.000
30.92000 1488.000
31.00000 1587.000
31.08000 1470.000
31.16000 1369.000
31.24000 1287.000
31.32000 1140.000
31.40000 1040.000
31.48000 1049.000
31.56000 1016.000
31.64000 945.000
31.72000 912.000
31.80000 908.000
31.88000 932.000
31.96000 887.000
32.04000 920.000
32.12000 909.000
32.20000 930.000
32.28000 898.000
32.36000 909.000
32.44000 905.000
32.52000 869.000
32.60000 903.000
32.68000 858.000
32.76000 850.000
32.84000 860.000
32.92000 877.000
33.00000 823.000
33.08000 833.000
33.16000 821.000
33.24000 830.000
33.32000 846.000
33.40000 848.000
33.48000 814.000
33.56000 772.000
33.64000 839.000
33.72000 857.000
33.80000 737.000
33.88000 746.000
33.96000 766.000
34.04000 797.000
34.12000 763.000
34.20000 766.000
34.28000 745.000
34.36000 753.000
34.44000 793.000
34.52000 771.000
34.60000 800.000
34.68000 753.000
34.76000 754.000
34.84000 747.000
34.92000 698.000
35.00000 726.000
35.08000 716.000
35.16000 659.000
35.24000 706.000
35.32000 710.000
35.40000 663.000
35.48000 677.000
35.56000 662.000
35.64000 689.000
35.72000 641.000
35.80000 644.000
35.88000 620.000
35.96000 621.000
36.04000 607.000
36.12000 646.000
36.20000 593.000
36.28000 594.000
36.36000 672.000
36.44000 606.000
36.52000 644.000
36.60000 620.000
36.68000 609.000
36.76000 598.000
36.84000 630.000
36.92000 520.000
37.00000 602.000
37.08000 578.000
37.16000 582.000
37.24000 625.000
37.32000 576.000
37.40000 546.000
37.48000 566.000
37.56000 582.000
37.64000 565.000
37.72000 586.000
37.80000 579.000
37.88000 549.000
37.96000 619.000
38.04000 655.000
38.12000 646.000
38.20000 619.000
38.28000 606.000
38.36000 634.000
38.44000 590.000
38.52000 588.000
38.60000 515.000
38.68000 534.000
38.76000 539.000
38.84000 541.000
38.92000 541.000
39.00000 543.000
39.08000 526.000
39.16000 508.000
39.24000 533.000
39.32000 525.000
39.40000 561.000
39.48000 501.000
39.56000 516.000
39.64000 511.000
39.72000 530.000
39.80000 527.000
39.88000 504.000
39.96000 550.000
40.04000 511.000
40.12000 523.000
40.20000 538.000
40.28000 537.000
40.36000 548.000
40.44000 479.000
40.52000 492.000
40.60000 522.000
40.68000 546.000
40.76000 510.000
40.84000 501.000
40.92000 511.000
41.00000 551.000
41.08000 528.000
41.16000 557.000
41.24000 552.000
41.32000 521.000
41.40000 519.000
41.48000 494.000
41.56000 530.000
41.64000 533.000
41.72000 502.000
41.80000 499.000
41.88000 531.000
41.96000 515.000
42.04000 549.000
42.12000 501.000
42.20000 509.000
42.28000 520.000
42.36000 548.000
42.44000 496.000
42.52000 510.000
42.60000 527.000
42.68000 521.000
42.76000 525.000
42.84000 491.000
42.92000 527.000
43.00000 521.000
43.08000 505.000
43.16000 501.000
43.24000 500.000
43.32000 525.000
43.40000 544.000
43.48000 475.000
43.56000 527.000
43.64000 552.000
43.72000 555.000
43.80000 525.000
43.88000 573.000
43.96000 591.000
44.04000 619.000
44.12000 644.000
44.20000 685.000
44.28000 695.000
44.36000 724.000
44.44000 732.000
44.52000 659.000
44.60000 664.000
44.68000 630.000
44.76000 592.000
44.84000 571.000
44.92000 552.000
45.00000 520.000
45.08000 548.000
45.16000 554.000
45.24000 491.000
45.32000 507.000
45.40000 465.000
45.48000 489.000
45.56000 556.000
45.64000 506.000
45.72000 490.000
45.80000 506.000
45.88000 511.000
45.96000 533.000
46.04000 485.000
46.12000 500.000
46.20000 459.000
46.28000 465.000
46.36000 501.000
46.44000 452.000
46.52000 517.000
46.60000 485.000
46.68000 491.000
46.76000 450.000
46.84000 487.000
46.92000 471.000
47.00000 506.000
47.08000 494.000
47.16000 448.000
47.24000 466.000
47.32000 514.000
47.40000 486.000
47.48000 423.000
47.56000 440.000
47.64000 479.000
47.72000 451.000
47.80000 451.000
47.88000 447.000
47.96000 478.000
48.04000 445.000
48.12000 479.000
48.20000 418.000
48.28000 472.000
48.36000 432.000
48.44000 424.000
48.52000 469.000
48.60000 450.000
48.68000 430.000
48.76000 424.000
48.84000 458.000
48.92000 452.000
49.00000 469.000
49.08000 459.000
49.16000 455.000
49.24000 444.000
49.32000 447.000
49.40000 447.000
49.48000 458.000
49.56000 458.000
49.64000 450.000
49.72000 465.000
49.80000 471.000
49.88000 471.000
49.96000 430.000
50.04000 468.000
50.12000 437.000
50.20000 421.000
50.28000 450.000
50.36000 439.000
50.44000 502.000
50.52000 428.000
50.60000 431.000
50.68000 432.000
50.76000 430.000
50.84000 442.000
50.92000 412.000
51.00000 411.000
51.08000 437.000
51.16000 453.000
51.24000 443.000
51.32000 437.000
51.40000 419.000
51.48000 419.000
51.56000 427.000
51.64000 435.000
51.72000 432.000
51.80000 418.000
51.88000 429.000
51.96000 444.000
52.04000 465.000
52.12000 462.000
52.20000 425.000
52.28000 444.000
52.36000 498.000
52.44000 480.000
52.52000 469.000
52.60000 495.000
52.68000 449.000
52.76000 448.000
52.84000 481.000
52.92000 466.000
53.00000 439.000
53.08000 454.000
53.16000 428.000
53.24000 412.000
53.32000 468.000
53.40000 408.000
53.48000 431.000
53.56000 377.000
53.64000 391.000
53.72000 465.000
53.80000 415.000
53.88000 427.000
53.96000 411.000
54.04000 412.000
54.12000 417.000
54.20000 418.000
54.28000 435.000
54.36000 468.000
54.44000 457.000
54.52000 433.000
54.60000 445.000
54.68000 452.000
54.76000 431.000
54.84000 417.000
54.92000 469.000
55.00000 449.000
55.08000 487.000
55.16000 489.000
55.24000 442.000
55.32000 483.000
55.40000 454.000
55.48000 413.000
55.56000 431.000
55.64000 430.000
55.72000 447.000
55.80000 412.000
55.88000 408.000
55.96000 412.000
56.04000 434.000
56.12000 449.000
56.20000 451.000
56.28000 439.000
56.36000 464.000
56.44000 417.000
56.52000 425.000
56.60000 454.000
56.68000 443.000
56.76000 451.000
56.84000 414.000
56.92000 413.000
57.00000 422.000
57.08000 446.000
57.16000 417.000
57.24000 431.000
57.32000 406.000
57.40000 476.000
57.48000 392.000
57.56000 431.000
57.64000 419.000
57.72000 415.000
57.80000 393.000
57.88000 409.000
57.96000 421.000
58.04000 391.000
58.12000 421.000
58.20000 444.000
58.28000 412.000
58.36000 421.000
58.44000 436.000
58.52000 390.000
58.60000 449.000
58.68000 431.000
58.76000 419.000
58.84000 424.000
58.92000 411.000
59.00000 383.000
59.08000 375.000
59.16000 401.000
59.24000 389.000
59.32000 412.000
59.40000 426.000
59.48000 416.000
59.56000 437.000
59.64000 454.000
59.72000 431.000
59.80000 403.000
59.88000 416.000
59.96000 439.000
60.04000 436.000
60.12000 430.000
60.20000 414.000
60.28000 444.000
60.36000 422.000
60.44000 419.000
60.52000 411.000
60.60000 428.000
60.68000 426.000
60.76000 418.000
60.84000 426.000
60.92000 427.000
61.00000 424.000
61.08000 410.000
61.16000 375.000
61.24000 425.000
61.32000 427.000
61.40000 434.000
61.48000 392.000
61.56000 418.000
61.64000 416.000
61.72000 377.000
61.80000 404.000
61.88000 378.000
61.96000 415.000
62.04000 405.000
62.12000 411.000
62.20000 425.000
62.28000 401.000
62.36000 418.000
62.44000 430.000
62.52000 425.000
62.60000 409.000
62.68000 383.000
62.76000 432.000
62.84000 438.000
62.92000 414.000
63.00000 450.000
63.08000 397.000
63.16000 431.000
63.24000 411.000
63.32000 403.000
63.40000 408.000
63.48000 432.000
63.56000 427.000
63.64000 408.000
63.72000 421.000
63.80000 404.000
63.88000 383.000
63.96000 394.000
64.04000 409.000
64.12000 408.000
64.20000 398.000
64.28000 385.000
64.36000 381.000
64.44000 419.000
64.52000 407.000
64.60000 421.000
64.68000 406.000
64.76000 401.000
64.84000 407.000
64.92000 389.000
65.00000 411.000
65.08000 398.000
65.16000 422.000
65.24000 422.000
65.32000 402.000
65.40000 404.000
65.48000 385.000
65.56000 343.000
65.64000 405.000
65.72000 348.000
65.80000 380.000
65.88000 393.000
65.96000 392.000
66.04000 361.000
66.12000 355.000
66.20000 386.000
66.28000 394.000
66.36000 383.000
66.44000 378.000
66.52000 368.000
66.60000 379.000
66.68000 372.000
66.76000 368.000
66.84000 383.000
66.92000 385.000
67.00000 405.000
67.08000 378.000
67.16000 384.000
67.24000 363.000
67.32000 356.000
67.40000 362.000
67.48000 406.000
67.56000 351.000
67.64000 392.000
67.72000 336.000
67.80000 372.000
67.88000 357.000
67.96000 388.000
68.04000 390.000
68.12000 334.000
68.20000 380.000
68.28000 379.000
68.36000 351.000
68.44000 355.000
68.52000 364.000
68.60000 374.000
68.68000 384.000
68.76000 341.000
68.84000 362.000
68.92000 355.000
69.00000 368.000
69.08000 347.000
69.16000 373.000
69.24000 363.000
69.32000 372.000
69.40000 356.000
69.48000 347.000
69.56000 338.000
69.64000 364.000
69.72000 366.000
69.80000 378.000
69.88000 356.000
69.92000 366.000