File: XRD/6.xy
5.00000 586.000
5.04000 546.000
5.08000 599.000
5.12000 564.000
5.16000 588.000
5.20000 516.000
5.24000 578.000
5.28000 566.000
5.32000 547.000
5.36000 546.000
5.40000 551.000
5.44000 512.000
5.48000 571.000
5.52000 545.000
5.56000 545.000
5.60000 562.000
5.64000 451.000
5.68000 523.000
5.72000 483.000
5.76000 499.000
5.80000 521.000
5.84000 534.000
5.88000 507.000
5.92000 522.000
5.96000 463.000
6.00000 494.000
6.04000 471.000
6.08000 505.000
6.12000 478.000
6.16000 487.000
6.20000 423.000
6.24000 480.000
6.28000 432.000
6.32000 501.000
6.36000 444.000
6.40000 446.000
6.44000 487.000
6.48000 438.000
6.52000 456.000
6.56000 447.000
6.60000 437.000
6.64000 444.000
6.68000 461.000
6.72000 422.000
6.76000 410.000
6.80000 438.000
6.84000 408.000
6.88000 459.000
6.92000 454.000
6.96000 420.000
7.00000 481.000
7.04000 401.000
7.08000 435.000
7.12000 433.000
7.16000 436.000
7.20000 401.000
7.24000 395.000
7.28000 409.000
7.32000 397.000
7.36000 387.000
7.40000 412.000
7.44000 360.000
7.48000 387.000
7.52000 401.000
7.56000 393.000
7.60000 400.000
7.64000 400.000
7.68000 392.000
7.72000 376.000
7.76000 366.000
7.80000 337.000
7.84000 401.000
7.88000 344.000
7.92000 387.000
7.96000 368.000
8.00000 336.000
8.04000 356.000
8.08000 349.000
8.12000 357.000
8.16000 331.000
8.20000 368.000
8.24000 354.000
8.28000 367.000
8.32000 368.000
8.36000 377.000
8.40000 347.000
8.44000 328.000
8.48000 365.000
8.52000 357.000
8.56000 332.000
8.60000 334.000
8.64000 346.000
8.68000 351.000
8.72000 353.000
8.76000 305.000
8.80000 329.000
8.84000 313.000
8.88000 346.000
8.92000 313.000
8.96000 311.000
9.00000 328.000
9.04000 310.000
9.08000 338.000
9.12000 327.000
9.16000 303.000
9.20000 302.000
9.24000 321.000
9.28000 317.000
9.32000 326.000
9.36000 286.000
9.40000 313.000
9.44000 317.000
9.48000 302.000
9.52000 326.000
9.56000 292.000
9.60000 313.000
9.64000 306.000
9.68000 291.000
9.72000 261.000
9.76000 295.000
9.80000 306.000
9.84000 313.000
9.88000 288.000
9.92000 279.000
9.96000 266.000
10.00000 282.000
10.04000 248.000
10.08000 277.000
10.12000 268.000
10.16000 298.000
10.20000 280.000
10.24000 276.000
10.28000 300.000
10.32000 278.000
10.36000 273.000
10.40000 291.000
10.44000 278.000
10.48000 272.000
10.52000 276.000
10.56000 308.000
10.60000 271.000
10.64000 274.000
10.68000 231.000
10.72000 279.000
10.76000 275.000
10.80000 261.000
10.84000 266.000
10.88000 259.000
10.92000 281.000
10.96000 272.000
11.00000 266.000
11.04000 244.000
11.08000 243.000
11.12000 242.000
11.16000 266.000
11.20000 261.000
11.24000 252.000
11.28000 262.000
11.32000 260.000
11.36000 249.000
11.40000 282.000
11.44000 232.000
11.48000 279.000
11.52000 231.000
11.56000 262.000
11.60000 259.000
11.64000 275.000
11.68000 243.000
11.72000 272.000
11.76000 249.000
11.80000 252.000
11.84000 245.000
11.88000 275.000
11.92000 249.000
11.96000 281.000
12.00000 238.000
12.04000 259.000
12.08000 251.000
12.12000 250.000
12.16000 248.000
12.20000 263.000
12.24000 256.000
12.28000 255.000
12.32000 236.000
12.36000 249.000
12.40000 240.000
12.44000 260.000
12.48000 235.000
12.52000 260.000
12.56000 252.000
12.60000 242.000
12.64000 243.000
12.68000 239.000
12.72000 250.000
12.76000 255.000
12.80000 258.000
12.84000 301.000
12.88000 271.000
12.92000 291.000
12.96000 248.000
13.00000 245.000
13.04000 251.000
13.08000 263.000
13.12000 274.000
13.16000 260.000
13.20000 308.000
13.24000 288.000
13.28000 284.000
13.32000 314.000
13.36000 262.000
13.40000 333.000
13.44000 315.000
13.48000 380.000
13.52000 383.000
13.56000 421.000
13.60000 471.000
13.64000 477.000
13.68000 590.000
13.72000 633.000
13.76000 705.000
13.80000 735.000
13.84000 814.000
13.88000 930.000
13.92000 1112.000
13.96000 1200.000
14.00000 1436.000
14.04000 1727.000
14.08000 2098.000
14.12000 2549.000
14.16000 3062.000
14.20000 3632.000
14.24000 4544.000
14.28000 5563.000
14.32000 6416.000
14.36000 6801.000
14.40000 5861.000
14.44000 4037.000
14.48000 2461.000
14.52000 1480.000
14.56000 935.000
14.60000 624.000
14.64000 488.000
14.68000 389.000
14.72000 348.000
14.76000 327.000
14.80000 273.000
14.84000 273.000
14.88000 277.000
14.92000 243.000
14.96000 239.000
15.00000 249.000
15.04000 236.000
15.08000 247.000
15.12000 237.000
15.16000 199.000
15.20000 220.000
15.24000 224.000
15.28000 207.000
15.32000 205.000
15.36000 215.000
15.40000 203.000
15.44000 212.000
15.48000 208.000
15.52000 229.000
15.56000 183.000
15.60000 199.000
15.64000 205.000
15.68000 198.000
15.72000 187.000
15.76000 206.000
15.80000 188.000
15.84000 210.000
15.88000 178.000
15.92000 208.000
15.96000 199.000
16.00000 195.000
16.04000 225.000
16.08000 193.000
16.12000 214.000
16.16000 221.000
16.20000 183.000
16.24000 207.000
16.28000 177.000
16.32000 187.000
16.36000 210.000
16.40000 202.000
16.44000 210.000
16.48000 188.000
16.52000 173.000
16.56000 193.000
16.60000 192.000
16.64000 185.000
16.68000 183.000
16.72000 194.000
16.76000 189.000
16.80000 194.000
16.84000 196.000
16.88000 208.000
16.92000 181.000
16.96000 186.000
17.00000 192.000
17.04000 207.000
17.08000 197.000
17.12000 193.000
17.16000 188.000
17.20000 190.000
17.24000 198.000
17.28000 199.000
17.32000 189.000
17.36000 157.000
17.40000 181.000
17.44000 193.000
17.48000 197.000
17.52000 209.000
17.56000 180.000
17.60000 171.000
17.64000 208.000
17.68000 192.000
17.72000 182.000
17.76000 187.000
17.80000 193.000
17.84000 193.000
17.88000 175.000
17.92000 198.000
17.96000 212.000
18.00000 207.000
18.04000 217.000
18.08000 186.000
18.12000 201.000
18.16000 191.000
18.20000 211.000
18.24000 193.000
18.28000 194.000
18.32000 205.000
18.36000 220.000
18.40000 203.000
18.44000 183.000
18.48000 229.000
18.52000 211.000
18.56000 191.000
18.60000 228.000
18.64000 210.000
18.68000 210.000
18.72000 215.000
18.76000 209.000
18.80000 197.000
18.84000 219.000
18.88000 221.000
18.92000 212.000
18.96000 186.000
19.00000 220.000
19.04000 215.000
19.08000 200.000
19.12000 213.000
19.16000 190.000
19.20000 215.000
19.24000 201.000
19.28000 209.000
19.32000 235.000
19.36000 238.000
19.40000 234.000
19.44000 216.000
19.48000 233.000
19.52000 206.000
19.56000 239.000
19.60000 218.000
19.64000 246.000
19.68000 221.000
19.72000 240.000
19.76000 270.000
19.80000 271.000
19.84000 255.000
19.88000 290.000
19.92000 252.000
19.96000 266.000
20.00000 328.000
20.04000 353.000
20.08000 461.000
20.12000 530.000
20.16000 633.000
20.20000 754.000
20.24000 1015.000
20.28000 1267.000
20.32000 1678.000
20.36000 2063.000
20.40000 2119.000
20.44000 1784.000
20.48000 1288.000
20.52000 789.000
20.56000 540.000
20.60000 412.000
20.64000 309.000
20.68000 271.000
20.72000 259.000
20.76000 228.000
20.80000 254.000
20.84000 212.000
20.88000 232.000
20.92000 213.000
20.96000 215.000
21.00000 198.000
21.04000 224.000
21.08000 224.000
21.12000 199.000
21.16000 235.000
21.20000 226.000
21.24000 223.000
21.28000 218.000
21.32000 207.000
21.36000 225.000
21.40000 212.000
21.44000 205.000
21.48000 213.000
21.52000 216.000
21.56000 218.000
21.60000 198.000
21.64000 198.000
21.68000 234.000
21.72000 218.000
21.76000 230.000
21.80000 202.000
21.84000 209.000
21.88000 215.000
21.92000 222.000
21.96000 211.000
22.00000 198.000
22.04000 252.000
22.08000 203.000
22.12000 228.000
22.16000 226.000
22.20000 210.000
22.24000 216.000
22.28000 238.000
22.32000 219.000
22.36000 232.000
22.40000 234.000
22.44000 209.000
22.48000 220.000
22.52000 226.000
22.56000 231.000
22.60000 190.000
22.64000 230.000
22.68000 217.000
22.72000 204.000
22.76000 218.000
22.80000 212.000
22.84000 204.000
22.88000 227.000
22.92000 227.000
22.96000 190.000
23.00000 200.000
23.04000 218.000
23.08000 211.000
23.12000 230.000
23.16000 214.000
23.20000 203.000
23.24000 231.000
23.28000 190.000
23.32000 209.000
23.36000 214.000
23.40000 213.000
23.44000 196.000
23.48000 211.000
23.52000 194.000
23.56000 226.000
23.60000 200.000
23.64000 194.000
23.68000 231.000
23.72000 195.000
23.76000 222.000
23.80000 209.000
23.84000 207.000
23.88000 216.000
23.92000 197.000
23.96000 209.000
24.00000 226.000
24.04000 198.000
24.08000 227.000
24.12000 210.000
24.16000 204.000
24.20000 202.000
24.24000 213.000
24.28000 186.000
24.32000 222.000
24.36000 218.000
24.40000 191.000
24.44000 199.000
24.48000 196.000
24.52000 196.000
24.56000 190.000
24.60000 224.000
24.64000 195.000
24.68000 224.000
24.72000 248.000
24.76000 262.000
24.80000 275.000
24.84000 331.000
24.88000 358.000
24.92000 419.000
24.96000 492.000
25.00000 579.000
25.04000 691.000
25.08000 628.000
25.12000 542.000
25.16000 476.000
25.20000 313.000
25.24000 259.000
25.28000 254.000
25.32000 213.000
25.36000 211.000
25.40000 208.000
25.44000 204.000
25.48000 192.000
25.52000 188.000
25.56000 213.000
25.60000 216.000
25.64000 194.000
25.68000 165.000
25.72000 189.000
25.76000 165.000
25.80000 214.000
25.84000 192.000
25.88000 192.000
25.92000 205.000
25.96000 207.000
26.00000 186.000
26.04000 209.000
26.08000 206.000
26.12000 206.000
26.16000 218.000
26.20000 190.000
26.24000 167.000
26.28000 208.000
26.32000 194.000
26.36000 198.000
26.40000 191.000
26.44000 195.000
26.48000 194.000
26.52000 190.000
26.56000 168.000
26.60000 180.000
26.64000 178.000
26.68000 197.000
26.72000 188.000
26.76000 193.000
26.80000 202.000
26.84000 193.000
26.88000 175.000
26.92000 167.000
26.96000 181.000
27.00000 185.000
27.04000 185.000
27.08000 166.000
27.12000 163.000
27.16000 188.000
27.20000 180.000
27.24000 207.000
27.28000 188.000
27.32000 191.000
27.36000 204.000
27.40000 186.000
27.44000 196.000
27.48000 178.000
27.52000 203.000
27.56000 185.000
27.60000 207.000
27.64000 222.000
27.68000 222.000
27.72000 230.000
27.76000 219.000
27.80000 247.000
27.84000 181.000
27.88000 219.000
27.92000 213.000
27.96000 216.000
28.00000 194.000
28.04000 221.000
28.08000 216.000
28.12000 229.000
28.16000 230.000
28.20000 224.000
28.24000 209.000
28.28000 253.000
28.32000 193.000
28.36000 240.000
28.40000 255.000
28.44000 242.000
28.48000 264.000
28.52000 289.000
28.56000 336.000
28.60000 345.000
28.64000 421.000
28.68000 553.000
28.72000 672.000
28.76000 898.000
28.80000 1174.000
28.84000 1579.000
28.88000 2137.000
28.92000 2726.000
28.96000 3416.000
29.00000 3798.000
29.04000 3522.000
29.08000 2675.000
29.12000 1916.000
29.16000 1210.000
29.20000 829.000
29.24000 536.000
29.28000 415.000
29.32000 319.000
29.36000 263.000
29.40000 253.000
29.44000 218.000
29.48000 223.000
29.52000 199.000
29.56000 208.000
29.60000 186.000
29.64000 225.000
29.68000 179.000
29.72000 191.000
29.76000 174.000
29.80000 182.000
29.84000 167.000
29.88000 177.000
29.92000 160.000
29.96000 167.000
30.00000 175.000
30.04000 177.000
30.08000 187.000
30.12000 179.000
30.16000 169.000
30.20000 149.000
30.24000 175.000
30.28000 142.000
30.32000 159.000
30.36000 153.000
30.40000 155.000
30.44000 157.000
30.48000 190.000
30.52000 146.000
30.56000 150.000
30.60000 164.000
30.64000 151.000
30.68000 153.000
30.72000 167.000
30.76000 166.000
30.80000 144.000
30.84000 186.000
30.88000 170.000
30.92000 169.000
30.96000 199.000
31.00000 165.000
31.04000 178.000
31.08000 202.000
31.12000 188.000
31.16000 209.000
31.20000 203.000
31.24000 197.000
31.28000 151.000
31.32000 188.000
31.36000 188.000
31.40000 189.000
31.44000 195.000
31.48000 170.000
31.52000 177.000
31.56000 162.000
31.60000 156.000
31.64000 195.000
31.68000 193.000
31.72000 205.000
31.76000 187.000
31.80000 185.000
31.84000 185.000
31.88000 186.000
31.92000 183.000
31.96000 212.000
32.00000 220.000
32.04000 224.000
32.08000 239.000
32.12000 303.000
32.16000 370.000
32.20000 426.000
32.24000 559.000
32.28000 672.000
32.32000 1013.000
32.36000 1305.000
32.40000 1841.000
32.44000 2467.000
32.48000 3200.000
32.52000 3645.000
32.56000 3360.000
32.60000 2758.000
32.64000 2112.000
32.68000 1349.000
32.72000 811.000
32.76000 620.000
32.80000 380.000
32.84000 326.000
32.88000 237.000
32.92000 242.000
32.96000 192.000
33.00000 206.000
33.04000 164.000
33.08000 179.000
33.12000 165.000
33.16000 140.000
33.20000 165.000
33.24000 131.000
33.28000 139.000
33.32000 159.000
33.36000 144.000
33.40000 134.000
33.44000 134.000
33.48000 126.000
33.52000 136.000
33.56000 146.000
33.60000 139.000
33.64000 133.000
33.68000 112.000
33.72000 133.000
33.76000 126.000
33.80000 137.000
33.84000 123.000
33.88000 122.000
33.92000 136.000
33.96000 146.000
34.00000 126.000
34.04000 163.000
34.08000 146.000
34.12000 129.000
34.16000 138.000
34.20000 122.000
34.24000 125.000
34.28000 122.000
34.32000 142.000
34.36000 126.000
34.40000 119.000
34.44000 120.000
34.48000 141.000
34.52000 124.000
34.56000 125.000
34.60000 144.000
34.64000 141.000
34.68000 119.000
34.72000 131.000
34.76000 112.000
34.80000 117.000
34.84000 121.000
34.88000 120.000
34.92000 128.000
34.96000 128.000
35.00000 106.000
35.04000 117.000
35.08000 141.000
35.12000 123.000
35.16000 115.000
35.20000 119.000
35.24000 107.000
35.28000 128.000
35.32000 139.000
35.36000 151.000
35.40000 168.000
35.44000 168.000
35.48000 183.000
35.52000 218.000
35.56000 258.000
35.60000 346.000
35.64000 421.000
35.68000 543.000
35.72000 674.000
35.76000 680.000
35.80000 590.000
35.84000 458.000
35.88000 350.000
35.92000 271.000
35.96000 203.000
36.00000 167.000
36.04000 141.000
36.08000 126.000
36.12000 110.000
36.16000 100.000
36.20000 119.000
36.24000 105.000
36.28000 99.000
36.32000 113.000
36.36000 104.000
36.40000 119.000
36.44000 119.000
36.48000 102.000
36.52000 106.000
36.56000 103.000
36.60000 114.000
36.64000 123.000
36.68000 108.000
36.72000 98.000
36.76000 98.000
36.80000 108.000
36.84000 113.000
36.88000 111.000
36.92000 78.000
36.96000 99.000
37.00000 107.000
37.04000 106.000
37.08000 89.000
37.12000 88.000
37.16000 106.000
37.20000 82.000
37.24000 108.000
37.28000 118.000
37.32000 98.000
37.36000 91.000
37.40000 103.000
37.44000 93.000
37.48000 100.000
37.52000 82.000
37.56000 107.000
37.60000 95.000
37.64000 103.000
37.68000 106.000
37.72000 107.000
37.76000 96.000
37.80000 89.000
37.84000 100.000
37.88000 121.000
37.92000 103.000
37.96000 94.000
38.00000 90.000
38.04000 108.000
38.08000 93.000
38.12000 93.000
38.16000 90.000
38.20000 103.000
38.24000 103.000
38.28000 95.000
38.32000 96.000
38.36000 79.000
38.40000 111.000
38.44000 90.000
38.48000 99.000
38.52000 102.000
38.56000 90.000
38.60000 103.000
38.64000 113.000
38.68000 94.000
38.72000 85.000
38.76000 96.000
38.80000 80.000
38.84000 98.000
38.88000 113.000
38.92000 115.000
38.96000 99.000
39.00000 101.000
39.04000 109.000
39.08000 97.000
39.12000 97.000
39.16000 98.000
39.20000 93.000
39.24000 96.000
39.28000 102.000
39.32000 106.000
39.36000 105.000
39.40000 110.000
39.44000 98.000
39.48000 100.000
39.52000 106.000
39.56000 92.000
39.60000 91.000
39.64000 96.000
39.68000 121.000
39.72000 117.000
39.76000 91.000
39.80000 104.000
39.84000 100.000
39.88000 100.000
39.92000 110.000
39.96000 106.000
40.00000 100.000
40.04000 97.000
40.08000 119.000
40.12000 113.000
40.16000 106.000
40.20000 114.000
40.24000 112.000
40.28000 107.000
40.32000 135.000
40.36000 110.000
40.40000 97.000
40.44000 115.000
40.48000 109.000
40.52000 118.000
40.56000 92.000
40.60000 102.000
40.64000 99.000
40.68000 91.000
40.72000 110.000
40.76000 113.000
40.80000 124.000
40.84000 118.000
40.88000 124.000
40.92000 110.000
40.96000 118.000
41.00000 139.000
41.04000 137.000
41.08000 133.000
41.12000 144.000
41.16000 161.000
41.20000 214.000
41.24000 217.000
41.28000 276.000
41.32000 402.000
41.36000 542.000
41.40000 747.000
41.44000 994.000
41.48000 1246.000
41.52000 1228.000
41.56000 1199.000
41.60000 1017.000
41.64000 753.000
41.68000 561.000
41.72000 419.000
41.76000 300.000
41.80000 222.000
41.84000 183.000
41.88000 155.000
41.92000 163.000
41.96000 126.000
42.00000 125.000
42.04000 133.000
42.08000 139.000
42.12000 140.000
42.16000 124.000
42.20000 108.000
42.24000 122.000
42.28000 108.000
42.32000 123.000
42.36000 117.000
42.40000 108.000
42.44000 106.000
42.48000 106.000
42.52000 98.000
42.56000 118.000
42.60000 115.000
42.64000 102.000
42.68000 128.000
42.72000 107.000
42.76000 102.000
42.80000 104.000
42.84000 118.000
42.88000 108.000
42.92000 95.000
42.96000 126.000
43.00000 109.000
43.04000 99.000
43.08000 112.000
43.12000 101.000
43.16000 114.000
43.20000 99.000
43.24000 135.000
43.28000 109.000
43.32000 134.000
43.36000 128.000
43.40000 111.000
43.44000 112.000
43.48000 103.000
43.52000 125.000
43.56000 132.000
43.60000 122.000
43.64000 115.000
43.68000 118.000
43.72000 136.000
43.76000 128.000
43.80000 146.000
43.84000 174.000
43.88000 183.000
43.92000 243.000
43.96000 330.000
44.00000 404.000
44.04000 602.000
44.08000 789.000
44.12000 988.000
44.16000 994.000
44.20000 941.000
44.24000 799.000
44.28000 707.000
44.32000 511.000
44.36000 355.000
44.40000 277.000
44.44000 262.000
44.48000 184.000
44.52000 139.000
44.56000 124.000
44.60000 124.000
44.64000 119.000
44.68000 117.000
44.72000 136.000
44.76000 111.000
44.80000 89.000
44.84000 119.000
44.88000 100.000
44.92000 94.000
44.96000 108.000
45.00000 121.000
45.04000 106.000
45.08000 90.000
45.12000 110.000
45.16000 101.000
45.20000 98.000
45.24000 98.000
45.28000 107.000
45.32000 80.000
45.36000 83.000
45.40000 100.000
45.44000 89.000
45.48000 88.000
45.52000 100.000
45.56000 92.000
45.60000 76.000
45.64000 91.000
45.68000 96.000
45.72000 75.000
45.76000 78.000
45.80000 81.000
45.84000 85.000
45.88000 93.000
45.92000 93.000
45.96000 103.000
46.00000 76.000
46.04000 93.000
46.08000 82.000
46.12000 84.000
46.16000 73.000
46.20000 79.000
46.24000 76.000
46.28000 89.000
46.32000 92.000
46.36000 107.000
46.40000 80.000
46.44000 125.000
46.48000 102.000
46.52000 106.000
46.56000 117.000
46.60000 137.000
46.64000 150.000
46.68000 147.000
46.72000 154.000
46.76000 125.000
46.80000 138.000
46.84000 109.000
46.88000 95.000
46.92000 81.000
46.96000 90.000
47.00000 77.000
47.04000 86.000
47.08000 81.000
47.12000 78.000
47.16000 78.000
47.20000 87.000
47.24000 79.000
47.28000 71.000
47.32000 65.000
47.36000 72.000
47.40000 76.000
47.44000 71.000
47.48000 69.000
47.52000 61.000
47.56000 74.000
47.60000 81.000
47.64000 81.000
47.68000 96.000
47.72000 71.000
47.76000 88.000
47.80000 84.000
47.84000 84.000
47.88000 92.000
47.92000 71.000
47.96000 59.000
48.00000 53.000
48.04000 84.000
48.08000 67.000
48.12000 74.000
48.16000 82.000
48.20000 70.000
48.24000 74.000
48.28000 82.000
48.32000 81.000
48.36000 77.000
48.40000 64.000
48.44000 68.000
48.48000 70.000
48.52000 67.000
48.56000 93.000
48.60000 76.000
48.64000 57.000
48.68000 80.000
48.72000 66.000
48.76000 63.000
48.80000 65.000
48.84000 78.000
48.88000 84.000
48.92000 73.000
48.96000 84.000
49.00000 68.000
49.04000 81.000
49.08000 81.000
49.12000 79.000
49.16000 87.000
49.20000 94.000
49.24000 74.000
49.28000 80.000
49.32000 64.000
49.36000 79.000
49.40000 71.000
49.44000 65.000
49.48000 78.000
49.52000 67.000
49.56000 64.000
49.60000 67.000
49.64000 77.000
49.68000 65.000
49.72000 72.000
49.76000 86.000
49.80000 71.000
49.84000 86.000
49.88000 89.000
49.92000 69.000
49.96000 87.000
50.00000 79.000
50.04000 72.000
50.08000 89.000
50.12000 68.000
50.16000 78.000
50.20000 66.000
50.24000 96.000
50.28000 52.000
50.32000 67.000
50.36000 79.000
50.40000 66.000
50.44000 73.000
50.48000 73.000
50.52000 85.000
50.56000 67.000
50.60000 79.000
50.64000 86.000
50.68000 62.000
50.72000 55.000
50.76000 70.000
50.80000 79.000
50.84000 71.000
50.88000 67.000
50.92000 67.000
50.96000 88.000
51.00000 90.000
51.04000 102.000
51.08000 85.000
51.12000 80.000
51.16000 94.000
51.20000 105.000
51.24000 126.000
51.28000 150.000
51.32000 230.000
51.36000 232.000
51.40000 310.000
51.44000 331.000
51.48000 324.000
51.52000 302.000
51.56000 286.000
51.60000 239.000
51.64000 213.000
51.68000 164.000
51.72000 125.000
51.76000 122.000
51.80000 117.000
51.84000 80.000
51.88000 81.000
51.92000 67.000
51.96000 89.000
52.00000 79.000
52.04000 96.000
52.08000 67.000
52.12000 70.000
52.16000 86.000
52.20000 64.000
52.24000 75.000
52.28000 88.000
52.32000 71.000
52.36000 70.000
52.40000 79.000
52.44000 85.000
52.48000 65.000
52.52000 69.000
52.56000 73.000
52.60000 69.000
52.64000 63.000
52.68000 67.000
52.72000 69.000
52.76000 82.000
52.80000 81.000
52.84000 69.000
52.88000 70.000
52.92000 78.000
52.96000 68.000
53.00000 64.000
53.04000 65.000
53.08000 75.000
53.12000 57.000
53.16000 61.000
53.20000 80.000
53.24000 79.000
53.28000 87.000
53.32000 78.000
53.36000 63.000
53.40000 71.000
53.44000 82.000
53.48000 92.000
53.52000 110.000
53.56000 114.000
53.60000 155.000
53.64000 198.000
53.68000 214.000
53.72000 242.000
53.76000 205.000
53.80000 220.000
53.84000 209.000
53.88000 175.000
53.92000 133.000
53.96000 101.000
54.00000 106.000
54.04000 94.000
54.08000 86.000
54.12000 85.000
54.16000 72.000
54.20000 67.000
54.24000 76.000
54.28000 57.000
54.32000 76.000
54.36000 71.000
54.40000 91.000
54.44000 76.000
54.48000 75.000
54.52000 70.000
54.56000 66.000
54.60000 70.000
54.64000 43.000
54.68000 46.000
54.72000 69.000
54.76000 63.000
54.80000 63.000
54.84000 52.000
54.88000 60.000
54.92000 63.000
54.96000 60.000
55.00000 78.000
55.04000 60.000
55.08000 64.000
55.12000 50.000
55.16000 78.000
55.20000 72.000
55.24000 66.000
55.28000 75.000
55.32000 55.000
55.36000 69.000
55.40000 67.000
55.44000 54.000
55.48000 66.000
55.52000 87.000
55.56000 74.000
55.60000 83.000
55.64000 73.000
55.68000 85.000
55.72000 99.000
55.76000 106.000
55.80000 110.000
55.84000 117.000
55.88000 138.000
55.92000 136.000
55.96000 134.000
56.00000 127.000
56.04000 140.000
56.08000 116.000
56.12000 118.000
56.16000 94.000
56.20000 76.000
56.24000 78.000
56.28000 65.000
56.32000 67.000
56.36000 65.000
56.40000 66.000
56.44000 70.000
56.48000 64.000
56.52000 72.000
56.56000 69.000
56.60000 58.000
56.64000 70.000
56.68000 63.000
56.72000 70.000
56.76000 51.000
56.80000 69.000
56.84000 57.000
56.88000 61.000
56.92000 67.000
56.96000 71.000
57.00000 47.000
57.04000 68.000
57.08000 59.000
57.12000 61.000
57.16000 56.000
57.20000 56.000
57.24000 49.000
57.28000 70.000
57.32000 53.000
57.36000 53.000
57.40000 55.000
57.44000 66.000
57.48000 68.000
57.52000 50.000
57.56000 67.000
57.60000 71.000
57.64000 62.000
57.68000 59.000
57.72000 55.000
57.76000 56.000
57.80000 73.000
57.84000 63.000
57.88000 51.000
57.92000 66.000
57.96000 49.000
58.00000 60.000
58.04000 73.000
58.08000 55.000
58.12000 61.000
58.16000 55.000
58.20000 54.000
58.24000 68.000
58.28000 52.000
58.32000 57.000
58.36000 49.000
58.40000 73.000
58.44000 53.000
58.48000 49.000
58.52000 55.000
58.56000 76.000
58.60000 54.000
58.64000 56.000
58.68000 45.000
58.72000 61.000
58.76000 60.000
58.80000 84.000
58.84000 62.000
58.88000 53.000
58.92000 51.000
58.96000 70.000
59.00000 56.000
59.04000 57.000
59.08000 62.000
59.12000 62.000
59.16000 51.000
59.20000 51.000
59.24000 60.000
59.28000 66.000
59.32000 66.000
59.36000 66.000
59.40000 66.000
59.44000 68.000
59.48000 68.000
59.52000 72.000
59.56000 50.000
59.60000 60.000
59.64000 60.000
59.68000 56.000
59.72000 73.000
59.76000 70.000
59.80000 76.000
59.84000 74.000
59.88000 48.000
59.92000 68.000