File: XRD/60.xy
5.00000 1434.000
5.08000 1357.000
5.16000 1412.000
5.24000 1369.000
5.32000 1380.000
5.40000 1390.000
5.48000 1216.000
5.56000 1261.000
5.64000 1281.000
5.72000 1280.000
5.80000 1239.000
5.88000 1223.000
5.96000 1181.000
6.04000 1209.000
6.12000 1192.000
6.20000 1080.000
6.28000 1097.000
6.36000 1154.000
6.44000 1091.000
6.52000 1143.000
6.60000 1082.000
6.68000 1075.000
6.76000 1076.000
6.84000 996.000
6.92000 1041.000
7.00000 1071.000
7.08000 1008.000
7.16000 1058.000
7.24000 1009.000
7.32000 1037.000
7.40000 942.000
7.48000 983.000
7.56000 957.000
7.64000 924.000
7.72000 974.000
7.80000 996.000
7.88000 998.000
7.96000 909.000
8.04000 893.000
8.12000 923.000
8.20000 940.000
8.28000 893.000
8.36000 881.000
8.44000 906.000
8.52000 918.000
8.60000 922.000
8.68000 908.000
8.76000 900.000
8.84000 889.000
8.92000 926.000
9.00000 897.000
9.08000 955.000
9.16000 894.000
9.24000 815.000
9.32000 791.000
9.40000 828.000
9.48000 747.000
9.56000 742.000
9.64000 803.000
9.72000 772.000
9.80000 760.000
9.88000 676.000
9.96000 784.000
10.04000 716.000
10.12000 724.000
10.20000 738.000
10.28000 756.000
10.36000 689.000
10.44000 751.000
10.52000 715.000
10.60000 748.000
10.68000 718.000
10.76000 740.000
10.84000 683.000
10.92000 710.000
11.00000 668.000
11.08000 665.000
11.16000 666.000
11.24000 699.000
11.32000 631.000
11.40000 688.000
11.48000 667.000
11.56000 683.000
11.64000 708.000
11.72000 674.000
11.80000 687.000
11.88000 740.000
11.96000 672.000
12.04000 688.000
12.12000 675.000
12.20000 702.000
12.28000 757.000
12.36000 738.000
12.44000 720.000
12.52000 806.000
12.60000 807.000
12.68000 751.000
12.76000 684.000
12.84000 700.000
12.92000 674.000
13.00000 665.000
13.08000 662.000
13.16000 696.000
13.24000 638.000
13.32000 659.000
13.40000 613.000
13.48000 636.000
13.56000 662.000
13.64000 664.000
13.72000 703.000
13.80000 688.000
13.88000 651.000
13.96000 632.000
14.04000 654.000
14.12000 643.000
14.20000 628.000
14.28000 662.000
14.36000 662.000
14.44000 725.000
14.52000 716.000
14.60000 713.000
14.68000 668.000
14.76000 662.000
14.84000 692.000
14.92000 710.000
15.00000 742.000
15.08000 750.000
15.16000 802.000
15.24000 848.000
15.32000 880.000
15.40000 889.000
15.48000 907.000
15.56000 850.000
15.64000 790.000
15.72000 788.000
15.80000 770.000
15.88000 702.000
15.96000 767.000
16.04000 677.000
16.12000 776.000
16.20000 730.000
16.28000 722.000
16.36000 776.000
16.44000 729.000
16.52000 667.000
16.60000 771.000
16.68000 738.000
16.76000 717.000
16.84000 745.000
16.92000 759.000
17.00000 746.000
17.08000 802.000
17.16000 759.000
17.24000 781.000
17.32000 792.000
17.40000 829.000
17.48000 878.000
17.56000 885.000
17.64000 941.000
17.72000 1017.000
17.80000 1012.000
17.88000 1049.000
17.96000 1029.000
18.04000 910.000
18.12000 940.000
18.20000 951.000
18.28000 948.000
18.36000 895.000
18.44000 859.000
18.52000 854.000
18.60000 929.000
18.68000 875.000
18.76000 903.000
18.84000 887.000
18.92000 912.000
19.00000 928.000
19.08000 873.000
19.16000 905.000
19.24000 881.000
19.32000 912.000
19.40000 929.000
19.48000 934.000
19.56000 933.000
19.64000 989.000
19.72000 926.000
19.80000 978.000
19.88000 1043.000
19.96000 948.000
20.04000 1012.000
20.12000 1023.000
20.20000 979.000
20.28000 1048.000
20.36000 1015.000
20.44000 1008.000
20.52000 1083.000
20.60000 998.000
20.68000 1037.000
20.76000 1089.000
20.84000 1054.000
20.92000 1044.000
21.00000 1068.000
21.08000 1176.000
21.16000 1125.000
21.24000 1128.000
21.32000 1112.000
21.40000 1150.000
21.48000 1254.000
21.56000 1233.000
21.64000 1283.000
21.72000 1362.000
21.80000 1466.000
21.88000 1564.000
21.96000 1593.000
22.04000 1507.000
22.12000 1381.000
22.20000 1413.000
22.28000 1349.000
22.36000 1343.000
22.44000 1287.000
22.52000 1260.000
22.60000 1215.000
22.68000 1226.000
22.76000 1272.000
22.84000 1232.000
22.92000 1157.000
23.00000 1202.000
23.08000 1213.000
23.16000 1234.000
23.24000 1219.000
23.32000 1285.000
23.40000 1226.000
23.48000 1227.000
23.56000 1280.000
23.64000 1277.000
23.72000 1228.000
23.80000 1285.000
23.88000 1280.000
23.96000 1217.000
24.04000 1182.000
24.12000 1244.000
24.20000 1202.000
24.28000 1234.000
24.36000 1170.000
24.44000 1195.000
24.52000 1283.000
24.60000 1272.000
24.68000 1213.000
24.76000 1254.000
24.84000 1256.000
24.92000 1195.000
25.00000 1256.000
25.08000 1230.000
25.16000 1154.000
25.24000 1262.000
25.32000 1240.000
25.40000 1247.000
25.48000 1272.000
25.56000 1260.000
25.64000 1226.000
25.72000 1205.000
25.80000 1227.000
25.88000 1197.000
25.96000 1199.000
26.04000 1221.000
26.12000 1203.000
26.20000 1182.000
26.28000 1165.000
26.36000 1272.000
26.44000 1274.000
26.52000 1327.000
26.60000 1464.000
26.68000 1539.000
26.76000 1951.000
26.84000 2087.000
26.92000 2283.000
27.00000 2172.000
27.08000 1868.000
27.16000 1691.000
27.24000 1501.000
27.32000 1474.000
27.40000 1562.000
27.48000 1899.000
27.56000 2055.000
27.64000 1517.000
27.72000 1208.000
27.80000 1177.000
27.88000 1241.000
27.96000 1136.000
28.04000 1157.000
28.12000 1198.000
28.20000 1176.000
28.28000 1207.000
28.36000 1164.000
28.44000 1225.000
28.52000 1182.000
28.60000 1208.000
28.68000 1131.000
28.76000 1137.000
28.84000 1092.000
28.92000 1070.000
29.00000 1107.000
29.08000 1090.000
29.16000 1096.000
29.24000 1086.000
29.32000 1088.000
29.40000 1144.000
29.48000 1099.000
29.56000 1110.000
29.64000 1090.000
29.72000 1135.000
29.80000 1074.000
29.88000 1117.000
29.96000 1059.000
30.04000 1018.000
30.12000 1097.000
30.20000 975.000
30.28000 1061.000
30.36000 1024.000
30.44000 1000.000
30.52000 1053.000
30.60000 1035.000
30.68000 1105.000
30.76000 1069.000
30.84000 1105.000
30.92000 1212.000
31.00000 1316.000
31.08000 1522.000
31.16000 1586.000
31.24000 1599.000
31.32000 1578.000
31.40000 1434.000
31.48000 1248.000
31.56000 1183.000
31.64000 1070.000
31.72000 1040.000
31.80000 989.000
31.88000 938.000
31.96000 983.000
32.04000 976.000
32.12000 957.000
32.20000 885.000
32.28000 967.000
32.36000 929.000
32.44000 900.000
32.52000 899.000
32.60000 805.000
32.68000 826.000
32.76000 854.000
32.84000 847.000
32.92000 806.000
33.00000 822.000
33.08000 891.000
33.16000 820.000
33.24000 817.000
33.32000 810.000
33.40000 834.000
33.48000 839.000
33.56000 798.000
33.64000 787.000
33.72000 805.000
33.80000 784.000
33.88000 808.000
33.96000 782.000
34.04000 776.000
34.12000 756.000
34.20000 735.000
34.28000 760.000
34.36000 750.000
34.44000 742.000
34.52000 746.000
34.60000 733.000
34.68000 694.000
34.76000 741.000
34.84000 705.000
34.92000 739.000
35.00000 769.000
35.08000 743.000
35.16000 699.000
35.24000 733.000
35.32000 675.000
35.40000 679.000
35.48000 732.000
35.56000 698.000
35.64000 687.000
35.72000 686.000
35.80000 643.000
35.88000 651.000
35.96000 636.000
36.04000 642.000
36.12000 670.000
36.20000 590.000
36.28000 625.000
36.36000 595.000
36.44000 575.000
36.52000 612.000
36.60000 622.000
36.68000 584.000
36.76000 676.000
36.84000 573.000
36.92000 609.000
37.00000 596.000
37.08000 563.000
37.16000 624.000
37.24000 591.000
37.32000 601.000
37.40000 606.000
37.48000 590.000
37.56000 567.000
37.64000 543.000
37.72000 529.000
37.80000 561.000
37.88000 613.000
37.96000 598.000
38.04000 578.000
38.12000 578.000
38.20000 610.000
38.28000 558.000
38.36000 665.000
38.44000 670.000
38.52000 604.000
38.60000 633.000
38.68000 652.000
38.76000 613.000
38.84000 568.000
38.92000 564.000
39.00000 556.000
39.08000 557.000
39.16000 525.000
39.24000 507.000
39.32000 556.000
39.40000 516.000
39.48000 540.000
39.56000 506.000
39.64000 499.000
39.72000 555.000
39.80000 560.000
39.88000 530.000
39.96000 531.000
40.04000 501.000
40.12000 499.000
40.20000 483.000
40.28000 535.000
40.36000 498.000
40.44000 530.000
40.52000 506.000
40.60000 517.000
40.68000 522.000
40.76000 524.000
40.84000 533.000
40.92000 508.000
41.00000 495.000
41.08000 529.000
41.16000 499.000
41.24000 496.000
41.32000 509.000
41.40000 524.000
41.48000 547.000
41.56000 544.000
41.64000 504.000
41.72000 514.000
41.80000 555.000
41.88000 506.000
41.96000 521.000
42.04000 526.000
42.12000 524.000
42.20000 518.000
42.28000 536.000
42.36000 525.000
42.44000 471.000
42.52000 517.000
42.60000 527.000
42.68000 508.000
42.76000 525.000
42.84000 570.000
42.92000 537.000
43.00000 569.000
43.08000 513.000
43.16000 523.000
43.24000 522.000
43.32000 507.000
43.40000 491.000
43.48000 493.000
43.56000 503.000
43.64000 517.000
43.72000 552.000
43.80000 544.000
43.88000 537.000
43.96000 533.000
44.04000 518.000
44.12000 578.000
44.20000 560.000
44.28000 562.000
44.36000 602.000
44.44000 561.000
44.52000 587.000
44.60000 681.000
44.68000 742.000
44.76000 657.000
44.84000 769.000
44.92000 667.000
45.00000 708.000
45.08000 596.000
45.16000 610.000
45.24000 565.000
45.32000 484.000
45.40000 484.000
45.48000 525.000
45.56000 485.000
45.64000 498.000
45.72000 531.000
45.80000 507.000
45.88000 521.000
45.96000 498.000
46.04000 468.000
46.12000 473.000
46.20000 487.000
46.28000 464.000
46.36000 486.000
46.44000 481.000
46.52000 501.000
46.60000 472.000
46.68000 574.000
46.76000 484.000
46.84000 484.000
46.92000 486.000
47.00000 498.000
47.08000 443.000
47.16000 431.000
47.24000 487.000
47.32000 466.000
47.40000 491.000
47.48000 442.000
47.56000 518.000
47.64000 459.000
47.72000 440.000
47.80000 448.000
47.88000 466.000
47.96000 454.000
48.04000 466.000
48.12000 474.000
48.20000 459.000
48.28000 446.000
48.36000 484.000
48.44000 469.000
48.52000 446.000
48.60000 465.000
48.68000 487.000
48.76000 458.000
48.84000 448.000
48.92000 413.000
49.00000 484.000
49.08000 449.000
49.16000 412.000
49.24000 451.000
49.32000 452.000
49.40000 413.000
49.48000 425.000
49.56000 416.000
49.64000 434.000
49.72000 404.000
49.80000 430.000
49.88000 465.000
49.96000 464.000
50.04000 473.000
50.12000 428.000
50.20000 429.000
50.28000 475.000
50.36000 417.000
50.44000 461.000
50.52000 460.000
50.60000 445.000
50.68000 446.000
50.76000 479.000
50.84000 430.000
50.92000 436.000
51.00000 436.000
51.08000 434.000
51.16000 471.000
51.24000 423.000
51.32000 441.000
51.40000 431.000
51.48000 416.000
51.56000 466.000
51.64000 426.000
51.72000 472.000
51.80000 462.000
51.88000 411.000
51.96000 421.000
52.04000 437.000
52.12000 434.000
52.20000 413.000
52.28000 433.000
52.36000 416.000
52.44000 429.000
52.52000 445.000
52.60000 430.000
52.68000 413.000
52.76000 442.000
52.84000 472.000
52.92000 421.000
53.00000 512.000
53.08000 498.000
53.16000 490.000
53.24000 477.000
53.32000 468.000
53.40000 455.000
53.48000 469.000
53.56000 427.000
53.64000 420.000
53.72000 433.000
53.80000 471.000
53.88000 448.000
53.96000 413.000
54.04000 439.000
54.12000 433.000
54.20000 450.000
54.28000 421.000
54.36000 401.000
54.44000 424.000
54.52000 487.000
54.60000 412.000
54.68000 448.000
54.76000 414.000
54.84000 426.000
54.92000 428.000
55.00000 434.000
55.08000 454.000
55.16000 457.000
55.24000 426.000
55.32000 476.000
55.40000 481.000
55.48000 486.000
55.56000 499.000
55.64000 493.000
55.72000 512.000
55.80000 478.000
55.88000 469.000
55.96000 484.000
56.04000 449.000
56.12000 465.000
56.20000 458.000
56.28000 437.000
56.36000 397.000
56.44000 448.000
56.52000 429.000
56.60000 467.000
56.68000 446.000
56.76000 529.000
56.84000 579.000
56.92000 529.000
57.00000 445.000
57.08000 453.000
57.16000 429.000
57.24000 430.000
57.32000 401.000
57.40000 419.000
57.48000 425.000
57.56000 421.000
57.64000 395.000
57.72000 443.000
57.80000 421.000
57.88000 404.000
57.96000 449.000
58.04000 415.000
58.12000 447.000
58.20000 428.000
58.28000 432.000
58.36000 442.000
58.44000 380.000
58.52000 415.000
58.60000 442.000
58.68000 466.000
58.76000 426.000
58.84000 416.000
58.92000 460.000
59.00000 412.000
59.08000 390.000
59.16000 423.000
59.24000 434.000
59.32000 418.000
59.40000 417.000
59.48000 457.000
59.56000 437.000
59.64000 436.000
59.72000 436.000
59.80000 406.000
59.88000 381.000
59.96000 448.000
60.04000 418.000
60.12000 433.000
60.20000 457.000
60.28000 391.000
60.36000 418.000
60.44000 433.000
60.52000 422.000
60.60000 420.000
60.68000 416.000
60.76000 437.000
60.84000 426.000
60.92000 442.000
61.00000 433.000
61.08000 427.000
61.16000 391.000
61.24000 401.000
61.32000 399.000
61.40000 399.000
61.48000 400.000
61.56000 462.000
61.64000 403.000
61.72000 405.000
61.80000 411.000
61.88000 431.000
61.96000 440.000
62.04000 427.000
62.12000 415.000
62.20000 436.000
62.28000 396.000
62.36000 414.000
62.44000 398.000
62.52000 412.000
62.60000 418.000
62.68000 416.000
62.76000 373.000
62.84000 413.000
62.92000 390.000
63.00000 377.000
63.08000 431.000
63.16000 417.000
63.24000 439.000
63.32000 388.000
63.40000 396.000
63.48000 435.000
63.56000 378.000
63.64000 393.000
63.72000 405.000
63.80000 395.000
63.88000 400.000
63.96000 413.000
64.04000 387.000
64.12000 402.000
64.20000 402.000
64.28000 389.000
64.36000 408.000
64.44000 405.000
64.52000 424.000
64.60000 396.000
64.68000 385.000
64.76000 386.000
64.84000 422.000
64.92000 392.000
65.00000 390.000
65.08000 369.000
65.16000 364.000
65.24000 402.000
65.32000 399.000
65.40000 418.000
65.48000 389.000
65.56000 387.000
65.64000 396.000
65.72000 415.000
65.80000 410.000
65.88000 400.000
65.96000 376.000
66.04000 371.000
66.12000 387.000
66.20000 343.000
66.28000 414.000
66.36000 419.000
66.44000 369.000
66.52000 436.000
66.60000 409.000
66.68000 351.000
66.76000 396.000
66.84000 364.000
66.92000 384.000
67.00000 411.000
67.08000 359.000
67.16000 387.000
67.24000 376.000
67.32000 387.000
67.40000 389.000
67.48000 391.000
67.56000 391.000
67.64000 384.000
67.72000 385.000
67.80000 379.000
67.88000 326.000
67.96000 363.000
68.04000 392.000
68.12000 362.000
68.20000 348.000
68.28000 380.000
68.36000 362.000
68.44000 352.000
68.52000 398.000
68.60000 381.000
68.68000 394.000
68.76000 391.000
68.84000 371.000
68.92000 359.000
69.00000 339.000
69.08000 402.000
69.16000 349.000
69.24000 364.000
69.32000 360.000
69.40000 340.000
69.48000 348.000
69.56000 349.000
69.64000 382.000
69.72000 335.000
69.80000 377.000
69.88000 330.000
69.92000 346.000