File: XRD/62.xy
5.00000 4518.000
5.08000 4566.000
5.16000 4605.000
5.24000 4428.000
5.32000 4270.000
5.40000 4245.000
5.48000 4216.000
5.56000 4139.000
5.64000 4034.000
5.72000 4023.000
5.80000 4030.000
5.88000 3845.000
5.96000 3729.000
6.04000 3787.000
6.12000 3524.000
6.20000 3790.000
6.28000 3629.000
6.36000 3597.000
6.44000 3444.000
6.52000 3527.000
6.60000 3459.000
6.68000 3362.000
6.76000 3345.000
6.84000 3192.000
6.92000 3233.000
7.00000 3182.000
7.08000 3191.000
7.16000 3116.000
7.24000 3068.000
7.32000 3015.000
7.40000 3045.000
7.48000 2997.000
7.56000 2933.000
7.64000 2818.000
7.72000 2842.000
7.80000 2899.000
7.88000 2824.000
7.96000 3036.000
8.04000 3291.000
8.12000 4068.000
8.20000 4670.000
8.28000 5167.000
8.36000 4768.000
8.44000 3930.000
8.52000 3181.000
8.60000 2724.000
8.68000 2573.000
8.76000 2607.000
8.84000 2511.000
8.92000 2538.000
9.00000 2372.000
9.08000 2424.000
9.16000 2333.000
9.24000 2423.000
9.32000 2427.000
9.40000 2477.000
9.48000 2311.000
9.56000 2376.000
9.64000 2300.000
9.72000 2264.000
9.80000 2203.000
9.88000 2273.000
9.96000 2163.000
10.04000 2240.000
10.12000 2161.000
10.20000 2224.000
10.28000 2146.000
10.36000 2188.000
10.44000 2116.000
10.52000 2235.000
10.60000 2240.000
10.68000 2204.000
10.76000 2276.000
10.84000 2069.000
10.92000 2146.000
11.00000 2126.000
11.08000 2025.000
11.16000 2066.000
11.24000 2057.000
11.32000 2062.000
11.40000 1981.000
11.48000 2056.000
11.56000 2026.000
11.64000 2027.000
11.72000 2026.000
11.80000 2001.000
11.88000 2143.000
11.96000 2153.000
12.04000 2205.000
12.12000 2226.000
12.20000 2155.000
12.28000 2109.000
12.36000 2124.000
12.44000 2111.000
12.52000 2453.000
12.60000 3196.000
12.68000 4033.000
12.76000 4603.000
12.84000 4480.000
12.92000 3669.000
13.00000 2729.000
13.08000 2131.000
13.16000 1996.000
13.24000 2038.000
13.32000 1980.000
13.40000 2006.000
13.48000 1919.000
13.56000 1905.000
13.64000 2001.000
13.72000 1885.000
13.80000 1985.000
13.88000 1850.000
13.96000 1878.000
14.04000 1937.000
14.12000 1965.000
14.20000 1938.000
14.28000 1919.000
14.36000 1991.000
14.44000 1832.000
14.52000 2012.000
14.60000 1996.000
14.68000 2108.000
14.76000 2114.000
14.84000 1990.000
14.92000 2271.000
15.00000 2471.000
15.08000 2586.000
15.16000 2696.000
15.24000 2387.000
15.32000 2297.000
15.40000 2056.000
15.48000 1970.000
15.56000 1924.000
15.64000 1996.000
15.72000 2039.000
15.80000 2002.000
15.88000 2054.000
15.96000 2007.000
16.04000 2085.000
16.12000 2194.000
16.20000 2239.000
16.28000 2616.000
16.36000 3129.000
16.44000 5098.000
16.52000 9517.000
16.60000 13790.000
16.68000 15039.000
16.76000 12372.000
16.84000 8304.000
16.92000 4105.000
17.00000 2539.000
17.08000 2304.000
17.16000 2197.000
17.24000 2124.000
17.32000 2204.000
17.40000 2095.000
17.48000 2109.000
17.56000 2140.000
17.64000 2189.000
17.72000 2114.000
17.80000 2105.000
17.88000 2091.000
17.96000 2139.000
18.04000 2147.000
18.12000 2193.000
18.20000 2209.000
18.28000 2204.000
18.36000 2187.000
18.44000 2296.000
18.52000 2151.000
18.60000 2280.000
18.68000 2208.000
18.76000 2249.000
18.84000 2254.000
18.92000 2249.000
19.00000 2312.000
19.08000 2301.000
19.16000 2393.000
19.24000 2357.000
19.32000 2345.000
19.40000 2383.000
19.48000 2389.000
19.56000 2466.000
19.64000 2333.000
19.72000 2359.000
19.80000 2421.000
19.88000 2484.000
19.96000 2436.000
20.04000 2440.000
20.12000 2450.000
20.20000 2491.000
20.28000 2614.000
20.36000 2590.000
20.44000 2575.000
20.52000 2632.000
20.60000 2754.000
20.68000 2750.000
20.76000 2720.000
20.84000 2839.000
20.92000 2846.000
21.00000 2991.000
21.08000 2982.000
21.16000 2919.000
21.24000 2771.000
21.32000 2853.000
21.40000 2742.000
21.48000 2791.000
21.56000 2867.000
21.64000 2851.000
21.72000 2816.000
21.80000 2783.000
21.88000 2876.000
21.96000 2763.000
22.04000 2803.000
22.12000 2806.000
22.20000 2841.000
22.28000 2876.000
22.36000 3011.000
22.44000 2924.000
22.52000 3217.000
22.60000 3292.000
22.68000 3444.000
22.76000 3344.000
22.84000 3118.000
22.92000 3023.000
23.00000 2954.000
23.08000 3006.000
23.16000 3118.000
23.24000 3063.000
23.32000 3046.000
23.40000 3109.000
23.48000 3153.000
23.56000 3098.000
23.64000 3214.000
23.72000 3194.000
23.80000 3421.000
23.88000 3409.000
23.96000 3716.000
24.04000 4023.000
24.12000 4323.000
24.20000 4521.000
24.28000 4701.000
24.36000 4828.000
24.44000 4541.000
24.52000 4691.000
24.60000 4959.000
24.68000 5805.000
24.76000 8316.000
24.84000 14505.000
24.92000 36657.000
25.00000 80360.000
25.08000 126671.000
25.16000 141922.000
25.24000 115577.000
25.32000 71665.000
25.40000 29785.000
25.48000 10855.000
25.56000 7687.000
25.64000 8122.000
25.72000 9564.000
25.80000 10621.000
25.88000 9920.000
25.96000 8472.000
26.04000 6701.000
26.12000 5225.000
26.20000 4396.000
26.28000 3859.000
26.36000 3473.000
26.44000 3341.000
26.52000 3129.000
26.60000 2936.000
26.68000 2924.000
26.76000 2943.000
26.84000 3076.000
26.92000 3157.000
27.00000 3163.000
27.08000 3217.000
27.16000 3099.000
27.24000 3175.000
27.32000 3511.000
27.40000 3990.000
27.48000 3988.000
27.56000 3957.000
27.64000 3632.000
27.72000 3315.000
27.80000 3077.000
27.88000 2967.000
27.96000 2983.000
28.04000 2833.000
28.12000 2945.000
28.20000 2833.000
28.28000 2752.000
28.36000 2709.000
28.44000 2710.000
28.52000 2690.000
28.60000 2720.000
28.68000 2805.000
28.76000 2803.000
28.84000 2910.000
28.92000 3409.000
29.00000 4496.000
29.08000 6519.000
29.16000 9380.000
29.24000 10577.000
29.32000 11560.000
29.40000 10012.000
29.48000 7563.000
29.56000 5408.000
29.64000 4472.000
29.72000 4016.000
29.80000 3800.000
29.88000 3418.000
29.96000 2997.000
30.04000 2865.000
30.12000 2726.000
30.20000 2697.000
30.28000 2702.000
30.36000 3006.000
30.44000 3546.000
30.52000 4213.000
30.60000 4821.000
30.68000 4860.000
30.76000 4214.000
30.84000 3352.000
30.92000 2821.000
31.00000 2598.000
31.08000 2474.000
31.16000 2540.000
31.24000 2379.000
31.32000 2373.000
31.40000 2374.000
31.48000 2289.000
31.56000 2232.000
31.64000 2295.000
31.72000 2347.000
31.80000 2315.000
31.88000 2357.000
31.96000 2487.000
32.04000 2495.000
32.12000 2514.000
32.20000 2738.000
32.28000 2946.000
32.36000 3019.000
32.44000 3041.000
32.52000 2912.000
32.60000 2682.000
32.68000 2573.000
32.76000 2425.000
32.84000 2415.000
32.92000 2345.000
33.00000 2238.000
33.08000 2296.000
33.16000 2122.000
33.24000 2121.000
33.32000 2044.000
33.40000 2030.000
33.48000 1979.000
33.56000 2060.000
33.64000 2065.000
33.72000 2024.000
33.80000 1993.000
33.88000 1952.000
33.96000 1948.000
34.04000 2018.000
34.12000 1872.000
34.20000 1832.000
34.28000 1843.000
34.36000 1917.000
34.44000 1877.000
34.52000 1808.000
34.60000 1792.000
34.68000 1819.000
34.76000 1747.000
34.84000 1720.000
34.92000 1751.000
35.00000 1706.000
35.08000 1676.000
35.16000 1696.000
35.24000 1719.000
35.32000 1772.000
35.40000 1673.000
35.48000 1759.000
35.56000 1755.000
35.64000 1650.000
35.72000 1599.000
35.80000 1539.000
35.88000 1594.000
35.96000 1571.000
36.04000 1560.000
36.12000 1537.000
36.20000 1512.000
36.28000 1527.000
36.36000 1538.000
36.44000 1521.000
36.52000 1583.000
36.60000 1557.000
36.68000 1565.000
36.76000 1563.000
36.84000 1531.000
36.92000 1547.000
37.00000 1600.000
37.08000 1539.000
37.16000 1463.000
37.24000 1387.000
37.32000 1440.000
37.40000 1373.000
37.48000 1419.000
37.56000 1435.000
37.64000 1411.000
37.72000 1398.000
37.80000 1362.000
37.88000 1370.000
37.96000 1395.000
38.04000 1315.000
38.12000 1331.000
38.20000 1351.000
38.28000 1365.000
38.36000 1375.000
38.44000 1399.000
38.52000 1468.000
38.60000 1595.000
38.68000 1470.000
38.76000 1502.000
38.84000 1528.000
38.92000 1566.000
39.00000 1473.000
39.08000 1480.000
39.16000 1369.000
39.24000 1425.000
39.32000 1423.000
39.40000 1354.000
39.48000 1347.000
39.56000 1430.000
39.64000 1414.000
39.72000 1369.000
39.80000 1378.000
39.88000 1385.000
39.96000 1380.000
40.04000 1388.000
40.12000 1476.000
40.20000 1598.000
40.28000 1528.000
40.36000 1510.000
40.44000 1379.000
40.52000 1396.000
40.60000 1437.000
40.68000 1432.000
40.76000 1311.000
40.84000 1395.000
40.92000 1351.000
41.00000 1356.000
41.08000 1369.000
41.16000 1271.000
41.24000 1369.000
41.32000 1376.000
41.40000 1308.000
41.48000 1347.000
41.56000 1385.000
41.64000 1369.000
41.72000 1403.000
41.80000 1410.000
41.88000 1469.000
41.96000 1528.000
42.04000 1631.000
42.12000 1664.000
42.20000 1771.000
42.28000 2015.000
42.36000 2727.000
42.44000 4149.000
42.52000 5641.000
42.60000 6422.000
42.68000 5879.000
42.76000 4607.000
42.84000 3219.000
42.92000 2386.000
43.00000 1979.000
43.08000 1721.000
43.16000 1529.000
43.24000 1444.000
43.32000 1335.000
43.40000 1335.000
43.48000 1277.000
43.56000 1336.000
43.64000 1368.000
43.72000 1203.000
43.80000 1296.000
43.88000 1339.000
43.96000 1317.000
44.04000 1314.000
44.12000 1260.000
44.20000 1289.000
44.28000 1300.000
44.36000 1293.000
44.44000 1304.000
44.52000 1330.000
44.60000 1346.000
44.68000 1257.000
44.76000 1387.000
44.84000 1353.000
44.92000 1340.000
45.00000 1324.000
45.08000 1353.000
45.16000 1293.000
45.24000 1350.000
45.32000 1363.000
45.40000 1361.000
45.48000 1465.000
45.56000 1360.000
45.64000 1386.000
45.72000 1502.000
45.80000 1514.000
45.88000 1650.000
45.96000 1528.000
46.04000 1544.000
46.12000 1495.000
46.20000 1433.000
46.28000 1386.000
46.36000 1339.000
46.44000 1365.000
46.52000 1315.000
46.60000 1375.000
46.68000 1325.000
46.76000 1334.000
46.84000 1404.000
46.92000 1348.000
47.00000 1307.000
47.08000 1256.000
47.16000 1238.000
47.24000 1189.000
47.32000 1186.000
47.40000 1261.000
47.48000 1237.000
47.56000 1199.000
47.64000 1246.000
47.72000 1220.000
47.80000 1225.000
47.88000 1204.000
47.96000 1205.000
48.04000 1199.000
48.12000 1244.000
48.20000 1200.000
48.28000 1261.000
48.36000 1294.000
48.44000 1170.000
48.52000 1241.000
48.60000 1225.000
48.68000 1220.000
48.76000 1229.000
48.84000 1254.000
48.92000 1184.000
49.00000 1264.000
49.08000 1218.000
49.16000 1227.000
49.24000 1209.000
49.32000 1249.000
49.40000 1203.000
49.48000 1204.000
49.56000 1301.000
49.64000 1251.000
49.72000 1321.000
49.80000 1352.000
49.88000 1394.000
49.96000 1410.000
50.04000 1475.000
50.12000 1467.000
50.20000 1499.000
50.28000 1444.000
50.36000 1443.000
50.44000 1422.000
50.52000 1476.000
50.60000 1457.000
50.68000 1408.000
50.76000 1452.000
50.84000 1449.000
50.92000 1448.000
51.00000 1505.000
51.08000 1511.000
51.16000 1733.000
51.24000 1990.000
51.32000 2349.000
51.40000 3871.000
51.48000 7693.000
51.56000 12840.000
51.64000 17873.000
51.72000 19234.000
51.80000 16748.000
51.88000 12019.000
51.96000 6834.000
52.04000 3767.000
52.12000 2264.000
52.20000 1738.000
52.28000 1580.000
52.36000 1439.000
52.44000 1437.000
52.52000 1392.000
52.60000 1308.000
52.68000 1319.000
52.76000 1351.000
52.84000 1453.000
52.92000 1439.000
53.00000 1639.000
53.08000 1749.000
53.16000 1756.000
53.24000 1638.000
53.32000 1495.000
53.40000 1432.000
53.48000 1300.000
53.56000 1240.000
53.64000 1213.000
53.72000 1176.000
53.80000 1222.000
53.88000 1181.000
53.96000 1158.000
54.04000 1103.000
54.12000 1095.000
54.20000 1143.000
54.28000 1147.000
54.36000 1195.000
54.44000 1177.000
54.52000 1113.000
54.60000 1212.000
54.68000 1164.000
54.76000 1208.000
54.84000 1221.000
54.92000 1209.000
55.00000 1208.000
55.08000 1150.000
55.16000 1217.000
55.24000 1131.000
55.32000 1150.000
55.40000 1025.000
55.48000 1118.000
55.56000 1094.000
55.64000 1117.000
55.72000 1074.000
55.80000 1117.000
55.88000 1128.000
55.96000 1150.000
56.04000 1135.000
56.12000 1144.000
56.20000 1112.000
56.28000 1188.000
56.36000 1054.000
56.44000 1111.000
56.52000 1051.000
56.60000 1097.000
56.68000 1067.000
56.76000 1157.000
56.84000 1079.000
56.92000 1070.000
57.00000 1047.000
57.08000 1042.000
57.16000 1075.000
57.24000 993.000
57.32000 1071.000
57.40000 1065.000
57.48000 1059.000
57.56000 1074.000
57.64000 1070.000
57.72000 1120.000
57.80000 1128.000
57.88000 1110.000
57.96000 1087.000
58.04000 1163.000
58.12000 1079.000
58.20000 1082.000
58.28000 1148.000
58.36000 1134.000
58.44000 1069.000
58.52000 1136.000
58.60000 1143.000
58.68000 1106.000
58.76000 1153.000
58.84000 1111.000
58.92000 1100.000
59.00000 1107.000
59.08000 1063.000
59.16000 1065.000
59.24000 1090.000
59.32000 1137.000
59.40000 1087.000
59.48000 1158.000
59.56000 1101.000
59.64000 1077.000
59.72000 1061.000
59.80000 1087.000
59.88000 1065.000
59.96000 1105.000
60.04000 1098.000
60.12000 1114.000
60.20000 1069.000
60.28000 1173.000
60.36000 1195.000
60.44000 1267.000
60.52000 1372.000
60.60000 1593.000
60.68000 1710.000
60.76000 1817.000
60.84000 1967.000
60.92000 2038.000
61.00000 2058.000
61.08000 1869.000
61.16000 1894.000
61.24000 1687.000
61.32000 1533.000
61.40000 1381.000
61.48000 1244.000
61.56000 1150.000
61.64000 1081.000
61.72000 1090.000
61.80000 1136.000
61.88000 1139.000
61.96000 1106.000
62.04000 1201.000
62.12000 1129.000
62.20000 1175.000
62.28000 1119.000
62.36000 1143.000
62.44000 1140.000
62.52000 1081.000
62.60000 1073.000
62.68000 1168.000
62.76000 1115.000
62.84000 1098.000
62.92000 1030.000
63.00000 1014.000
63.08000 1022.000
63.16000 1095.000
63.24000 993.000
63.32000 1035.000
63.40000 1028.000
63.48000 1050.000
63.56000 1110.000
63.64000 1109.000
63.72000 1091.000
63.80000 1200.000
63.88000 1101.000
63.96000 1094.000
64.04000 1140.000
64.12000 1096.000
64.20000 1082.000
64.28000 1020.000
64.36000 1057.000
64.44000 1072.000
64.52000 1080.000
64.60000 1062.000
64.68000 1135.000
64.76000 1018.000
64.84000 1012.000
64.92000 1062.000
65.00000 1023.000
65.08000 1081.000
65.16000 1049.000
65.24000 1056.000
65.32000 1018.000
65.40000 1063.000
65.48000 1025.000
65.56000 1046.000
65.64000 1094.000
65.72000 1047.000
65.80000 1023.000
65.88000 1074.000
65.96000 1016.000
66.04000 986.000
66.12000 1037.000
66.20000 1039.000
66.28000 977.000
66.36000 977.000
66.44000 1052.000
66.52000 1001.000
66.60000 1046.000
66.68000 1069.000
66.76000 1045.000
66.84000 1076.000
66.92000 987.000
67.00000 1059.000
67.08000 1025.000
67.16000 1075.000
67.24000 1000.000
67.32000 1094.000
67.40000 1053.000
67.48000 1029.000
67.56000 1009.000
67.64000 996.000
67.72000 994.000
67.80000 1019.000
67.88000 1028.000
67.96000 1024.000
68.04000 1017.000
68.12000 960.000
68.20000 986.000
68.28000 999.000
68.36000 1015.000
68.44000 961.000
68.52000 1005.000
68.60000 991.000
68.68000 990.000
68.76000 987.000
68.84000 992.000
68.92000 931.000
69.00000 964.000
69.08000 950.000
69.16000 971.000
69.24000 965.000
69.32000 985.000
69.40000 1020.000
69.48000 981.000
69.56000 975.000
69.64000 1003.000
69.72000 960.000
69.80000 993.000
69.88000 954.000
69.92000 945.000