File: XRD/63.xy
5.00000 3389.000
5.08000 3395.000
5.16000 3244.000
5.24000 3146.000
5.32000 3184.000
5.40000 3000.000
5.48000 3041.000
5.56000 3083.000
5.64000 3001.000
5.72000 3074.000
5.80000 3080.000
5.88000 3127.000
5.96000 3234.000
6.04000 3327.000
6.12000 3882.000
6.20000 4400.000
6.28000 4370.000
6.36000 4364.000
6.44000 4923.000
6.52000 6365.000
6.60000 9548.000
6.68000 17387.000
6.76000 38416.000
6.84000 58774.000
6.92000 35747.000
7.00000 15463.000
7.08000 7427.000
7.16000 5222.000
7.24000 4533.000
7.32000 4312.000
7.40000 4429.000
7.48000 4387.000
7.56000 4516.000
7.64000 4737.000
7.72000 4888.000
7.80000 4975.000
7.88000 4895.000
7.96000 4874.000
8.04000 5002.000
8.12000 5136.000
8.20000 5611.000
8.28000 6278.000
8.36000 6451.000
8.44000 5542.000
8.52000 5561.000
8.60000 6173.000
8.68000 7415.000
8.76000 10941.000
8.84000 17579.000
8.92000 29990.000
9.00000 67566.000
9.08000 192393.600
9.16000 708631.900
9.24000 1225430.000
9.32000 509938.700
9.40000 128744.600
9.48000 30242.000
9.56000 9522.000
9.64000 5249.000
9.72000 3887.000
9.80000 3360.000
9.88000 3828.000
9.96000 5395.000
10.04000 12115.000
10.12000 30320.000
10.20000 24974.000
10.28000 8720.000
10.36000 3571.000
10.44000 2121.000
10.52000 1754.000
10.60000 1494.000
10.68000 1490.000
10.76000 1368.000
10.84000 1353.000
10.92000 1324.000
11.00000 1349.000
11.08000 1254.000
11.16000 1283.000
11.24000 1247.000
11.32000 1227.000
11.40000 1172.000
11.48000 1302.000
11.56000 1310.000
11.64000 1455.000
11.72000 1929.000
11.80000 3287.000
11.88000 4972.000
11.96000 3333.000
12.04000 1767.000
12.12000 1354.000
12.20000 1205.000
12.28000 1081.000
12.36000 1113.000
12.44000 1121.000
12.52000 1130.000
12.60000 1101.000
12.68000 1104.000
12.76000 1115.000
12.84000 1070.000
12.92000 1035.000
13.00000 1079.000
13.08000 1073.000
13.16000 1085.000
13.24000 1117.000
13.32000 1145.000
13.40000 1245.000
13.48000 1263.000
13.56000 1578.000
13.64000 1916.000
13.72000 1766.000
13.80000 1328.000
13.88000 1129.000
13.96000 1068.000
14.04000 1102.000
14.12000 1096.000
14.20000 1060.000
14.28000 1051.000
14.36000 1102.000
14.44000 1081.000
14.52000 1076.000
14.60000 1090.000
14.68000 1109.000
14.76000 1040.000
14.84000 1054.000
14.92000 1100.000
15.00000 1099.000
15.08000 1120.000
15.16000 1108.000
15.24000 1108.000
15.32000 1100.000
15.40000 1092.000
15.48000 1161.000
15.56000 1137.000
15.64000 1144.000
15.72000 1104.000
15.80000 1102.000
15.88000 1133.000
15.96000 1166.000
16.04000 1154.000
16.12000 1144.000
16.20000 1183.000
16.28000 1106.000
16.36000 1193.000
16.44000 1180.000
16.52000 1179.000
16.60000 1245.000
16.68000 1281.000
16.76000 1223.000
16.84000 1217.000
16.92000 1297.000
17.00000 1265.000
17.08000 1259.000
17.16000 1266.000
17.24000 1309.000
17.32000 1382.000
17.40000 1326.000
17.48000 1341.000
17.56000 1418.000
17.64000 1479.000
17.72000 1398.000
17.80000 1457.000
17.88000 1428.000
17.96000 1519.000
18.04000 1557.000
18.12000 1827.000
18.20000 2455.000
18.28000 4439.000
18.36000 11045.000
18.44000 17902.000
18.52000 14185.000
18.60000 6155.000
18.68000 2751.000
18.76000 1874.000
18.84000 1679.000
18.92000 1572.000
19.00000 1589.000
19.08000 1541.000
19.16000 1574.000
19.24000 1715.000
19.32000 1614.000
19.40000 1689.000
19.48000 1674.000
19.56000 1676.000
19.64000 1742.000
19.72000 1720.000
19.80000 1811.000
19.88000 2023.000
19.96000 2159.000
20.04000 2749.000
20.12000 4487.000
20.20000 10010.000
20.28000 17160.000
20.36000 15442.000
20.44000 7490.000
20.52000 3512.000
20.60000 2373.000
20.68000 1967.000
20.76000 1979.000
20.84000 1913.000
20.92000 1887.000
21.00000 1904.000
21.08000 1914.000
21.16000 1914.000
21.24000 1862.000
21.32000 1891.000
21.40000 1866.000
21.48000 1890.000
21.56000 1955.000
21.64000 1924.000
21.72000 1916.000
21.80000 1950.000
21.88000 1923.000
21.96000 1942.000
22.04000 1970.000
22.12000 1969.000
22.20000 1955.000
22.28000 2039.000
22.36000 2028.000
22.44000 1953.000
22.52000 1944.000
22.60000 1995.000
22.68000 1986.000
22.76000 2008.000
22.84000 2000.000
22.92000 1952.000
23.00000 2022.000
23.08000 2113.000
23.16000 2016.000
23.24000 2021.000
23.32000 2084.000
23.40000 2083.000
23.48000 2001.000
23.56000 2035.000
23.64000 2061.000
23.72000 2013.000
23.80000 2136.000
23.88000 2145.000
23.96000 2170.000
24.04000 1936.000
24.12000 2095.000
24.20000 2070.000
24.28000 1999.000
24.36000 2066.000
24.44000 2077.000
24.52000 2015.000
24.60000 1982.000
24.68000 2031.000
24.76000 2083.000
24.84000 2056.000
24.92000 2053.000
25.00000 2098.000
25.08000 2217.000
25.16000 2070.000
25.24000 2147.000
25.32000 1962.000
25.40000 2086.000
25.48000 2004.000
25.56000 2005.000
25.64000 1883.000
25.72000 1985.000
25.80000 1976.000
25.88000 2060.000
25.96000 1941.000
26.04000 2047.000
26.12000 2077.000
26.20000 1996.000
26.28000 1974.000
26.36000 1969.000
26.44000 2103.000
26.52000 2259.000
26.60000 2207.000
26.68000 2258.000
26.76000 2170.000
26.84000 2131.000
26.92000 2264.000
27.00000 2160.000
27.08000 2445.000
27.16000 2510.000
27.24000 2743.000
27.32000 3190.000
27.40000 4050.000
27.48000 5957.000
27.56000 10136.000
27.64000 24952.000
27.72000 56397.000
27.80000 67444.000
27.88000 64683.000
27.96000 41555.000
28.04000 16030.000
28.12000 5832.000
28.20000 3327.000
28.28000 2870.000
28.36000 2598.000
28.44000 2426.000
28.52000 2130.000
28.60000 1946.000
28.68000 1942.000
28.76000 1858.000
28.84000 1869.000
28.92000 1789.000
29.00000 1753.000
29.08000 1852.000
29.16000 1701.000
29.24000 1776.000
29.32000 1758.000
29.40000 1695.000
29.48000 1687.000
29.56000 1715.000
29.64000 1744.000
29.72000 1731.000
29.80000 1730.000
29.88000 1729.000
29.96000 1723.000
30.04000 1712.000
30.12000 1736.000
30.20000 1790.000
30.28000 1906.000
30.36000 2168.000
30.44000 2895.000
30.52000 5207.000
30.60000 6678.000
30.68000 7510.000
30.76000 5705.000
30.84000 3365.000
30.92000 2121.000
31.00000 1771.000
31.08000 1680.000
31.16000 1735.000
31.24000 1606.000
31.32000 1668.000
31.40000 1624.000
31.48000 1609.000
31.56000 1591.000
31.64000 1519.000
31.72000 1559.000
31.80000 1447.000
31.88000 1491.000
31.96000 1460.000
32.04000 1476.000
32.12000 1467.000
32.20000 1493.000
32.28000 1464.000
32.36000 1479.000
32.44000 1388.000
32.52000 1427.000
32.60000 1401.000
32.68000 1384.000
32.76000 1395.000
32.84000 1378.000
32.92000 1396.000
33.00000 1398.000
33.08000 1391.000
33.16000 1342.000
33.24000 1340.000
33.32000 1329.000
33.40000 1383.000
33.48000 1434.000
33.56000 1537.000
33.64000 1483.000
33.72000 1383.000
33.80000 1338.000
33.88000 1342.000
33.96000 1365.000
34.04000 1411.000
34.12000 1334.000
34.20000 1368.000
34.28000 1476.000
34.36000 1633.000
34.44000 1805.000
34.52000 1973.000
34.60000 1797.000
34.68000 1567.000
34.76000 1395.000
34.84000 1294.000
34.92000 1164.000
35.00000 1196.000
35.08000 1139.000
35.16000 1169.000
35.24000 1210.000
35.32000 1199.000
35.40000 1201.000
35.48000 1205.000
35.56000 1271.000
35.64000 1382.000
35.72000 1323.000
35.80000 1358.000
35.88000 1354.000
35.96000 1327.000
36.04000 1302.000
36.12000 1339.000
36.20000 1336.000
36.28000 1332.000
36.36000 1421.000
36.44000 1440.000
36.52000 1439.000
36.60000 1549.000
36.68000 1710.000
36.76000 1934.000
36.84000 2302.000
36.92000 3271.000
37.00000 5460.000
37.08000 11517.000
37.16000 30015.000
37.24000 60853.000
37.32000 68934.000
37.40000 66633.000
37.48000 62992.000
37.56000 40725.000
37.64000 17972.000
37.72000 6196.000
37.80000 2811.000
37.88000 1905.000
37.96000 1613.000
38.04000 1433.000
38.12000 1311.000
38.20000 1226.000
38.28000 1128.000
38.36000 1110.000
38.44000 1077.000
38.52000 1013.000
38.60000 952.000
38.68000 906.000
38.76000 927.000
38.84000 882.000
38.92000 901.000
39.00000 911.000
39.08000 907.000
39.16000 883.000
39.24000 854.000
39.32000 857.000
39.40000 786.000
39.48000 846.000
39.56000 791.000
39.64000 878.000
39.72000 829.000
39.80000 860.000
39.88000 836.000
39.96000 769.000
40.04000 832.000
40.12000 835.000
40.20000 847.000
40.28000 846.000
40.36000 826.000
40.44000 824.000
40.52000 786.000
40.60000 866.000
40.68000 814.000
40.76000 834.000
40.84000 887.000
40.92000 846.000
41.00000 921.000
41.08000 940.000
41.16000 1063.000
41.24000 1327.000
41.32000 1394.000
41.40000 1292.000
41.48000 1096.000
41.56000 1022.000
41.64000 1112.000
41.72000 1137.000
41.80000 1031.000
41.88000 959.000
41.96000 888.000
42.04000 849.000
42.12000 864.000
42.20000 845.000
42.28000 804.000
42.36000 795.000
42.44000 841.000
42.52000 846.000
42.60000 798.000
42.68000 820.000
42.76000 743.000
42.84000 807.000
42.92000 844.000
43.00000 786.000
43.08000 792.000
43.16000 787.000
43.24000 767.000
43.32000 752.000
43.40000 848.000
43.48000 795.000
43.56000 727.000
43.64000 810.000
43.72000 740.000
43.80000 768.000
43.88000 772.000
43.96000 802.000
44.04000 745.000
44.12000 784.000
44.20000 764.000
44.28000 739.000
44.36000 816.000
44.44000 764.000
44.52000 737.000
44.60000 758.000
44.68000 744.000
44.76000 748.000
44.84000 815.000
44.92000 772.000
45.00000 808.000
45.08000 808.000
45.16000 810.000
45.24000 774.000
45.32000 821.000
45.40000 795.000
45.48000 747.000
45.56000 830.000
45.64000 779.000
45.72000 796.000
45.80000 723.000
45.88000 809.000
45.96000 774.000
46.04000 767.000
46.12000 842.000
46.20000 793.000
46.28000 848.000
46.36000 850.000
46.44000 793.000
46.52000 838.000
46.60000 923.000
46.68000 943.000
46.76000 1194.000
46.84000 1697.000
46.92000 3077.000
47.00000 5990.000
47.08000 7411.000
47.16000 7815.000
47.24000 7672.000
47.32000 8067.000
47.40000 6595.000
47.48000 4280.000
47.56000 2171.000
47.64000 1211.000
47.72000 904.000
47.80000 816.000
47.88000 811.000
47.96000 753.000
48.04000 787.000
48.12000 707.000
48.20000 753.000
48.28000 774.000
48.36000 694.000
48.44000 720.000
48.52000 700.000
48.60000 701.000
48.68000 701.000
48.76000 756.000
48.84000 752.000
48.92000 712.000
49.00000 695.000
49.08000 689.000
49.16000 692.000
49.24000 659.000
49.32000 668.000
49.40000 664.000
49.48000 690.000
49.56000 647.000
49.64000 664.000
49.72000 702.000
49.80000 701.000
49.88000 652.000
49.96000 639.000
50.04000 640.000
50.12000 649.000
50.20000 676.000
50.28000 624.000
50.36000 618.000
50.44000 621.000
50.52000 671.000
50.60000 657.000
50.68000 669.000
50.76000 633.000
50.84000 643.000
50.92000 641.000
51.00000 648.000
51.08000 663.000
51.16000 650.000
51.24000 608.000
51.32000 652.000
51.40000 650.000
51.48000 643.000
51.56000 650.000
51.64000 668.000
51.72000 705.000
51.80000 716.000
51.88000 708.000
51.96000 859.000
52.04000 1028.000
52.12000 1093.000
52.20000 1189.000
52.28000 1386.000
52.36000 1228.000
52.44000 1123.000
52.52000 917.000
52.60000 742.000
52.68000 651.000
52.76000 698.000
52.84000 674.000
52.92000 623.000
53.00000 654.000
53.08000 676.000
53.16000 641.000
53.24000 670.000
53.32000 680.000
53.40000 622.000
53.48000 691.000
53.56000 622.000
53.64000 589.000
53.72000 616.000
53.80000 644.000
53.88000 631.000
53.96000 604.000
54.04000 623.000
54.12000 613.000
54.20000 599.000
54.28000 576.000
54.36000 627.000
54.44000 625.000
54.52000 632.000
54.60000 588.000
54.68000 626.000
54.76000 690.000
54.84000 594.000
54.92000 651.000
55.00000 604.000
55.08000 576.000
55.16000 622.000
55.24000 597.000
55.32000 611.000
55.40000 632.000
55.48000 593.000
55.56000 666.000
55.64000 624.000
55.72000 587.000
55.80000 602.000
55.88000 651.000
55.96000 696.000
56.04000 624.000
56.12000 608.000
56.20000 629.000
56.28000 629.000
56.36000 614.000
56.44000 642.000
56.52000 642.000
56.60000 634.000
56.68000 659.000
56.76000 619.000
56.84000 638.000
56.92000 653.000
57.00000 627.000
57.08000 725.000
57.16000 757.000
57.24000 818.000
57.32000 784.000
57.40000 734.000
57.48000 742.000
57.56000 714.000
57.64000 695.000
57.72000 692.000
57.80000 658.000
57.88000 682.000
57.96000 639.000
58.04000 624.000
58.12000 615.000
58.20000 606.000
58.28000 630.000
58.36000 685.000
58.44000 630.000
58.52000 637.000
58.60000 650.000
58.68000 627.000
58.76000 616.000
58.84000 667.000
58.92000 609.000
59.00000 645.000
59.08000 620.000
59.16000 605.000
59.24000 617.000
59.32000 675.000
59.40000 629.000
59.48000 620.000
59.56000 624.000
59.64000 695.000
59.72000 665.000
59.80000 603.000
59.88000 607.000
59.96000 616.000
60.04000 610.000
60.12000 628.000
60.20000 596.000
60.28000 565.000
60.36000 652.000
60.44000 631.000
60.52000 604.000
60.60000 593.000
60.68000 611.000
60.76000 638.000
60.84000 578.000
60.92000 598.000
61.00000 641.000
61.08000 650.000
61.16000 623.000
61.24000 595.000
61.32000 591.000
61.40000 573.000
61.48000 591.000
61.56000 623.000
61.64000 627.000
61.72000 632.000
61.80000 584.000
61.88000 618.000
61.96000 636.000
62.04000 642.000
62.12000 588.000
62.20000 630.000
62.28000 643.000
62.36000 645.000
62.44000 616.000
62.52000 583.000
62.60000 614.000
62.68000 624.000
62.76000 646.000
62.84000 616.000
62.92000 633.000
63.00000 626.000
63.08000 586.000
63.16000 634.000
63.24000 594.000
63.32000 621.000
63.40000 606.000
63.48000 631.000
63.56000 701.000
63.64000 674.000
63.72000 698.000
63.80000 659.000
63.88000 657.000
63.96000 632.000
64.04000 628.000
64.12000 603.000
64.20000 609.000
64.28000 574.000
64.36000 577.000
64.44000 580.000
64.52000 597.000
64.60000 609.000
64.68000 592.000
64.76000 606.000
64.84000 567.000
64.92000 578.000
65.00000 626.000
65.08000 595.000
65.16000 577.000
65.24000 573.000
65.32000 533.000
65.40000 597.000
65.48000 575.000
65.56000 551.000
65.64000 563.000
65.72000 579.000
65.80000 578.000
65.88000 598.000
65.96000 566.000
66.04000 543.000
66.12000 592.000
66.20000 575.000
66.28000 579.000
66.36000 563.000
66.44000 551.000
66.52000 547.000
66.60000 628.000
66.68000 523.000
66.76000 618.000
66.84000 573.000
66.92000 580.000
67.00000 538.000
67.08000 554.000
67.16000 576.000
67.24000 551.000
67.32000 558.000
67.40000 578.000
67.48000 509.000
67.56000 599.000
67.64000 645.000
67.72000 710.000
67.80000 895.000
67.88000 1113.000
67.96000 1202.000
68.04000 1087.000
68.12000 1042.000
68.20000 1060.000
68.28000 1072.000
68.36000 1080.000
68.44000 1019.000
68.52000 809.000
68.60000 772.000
68.68000 652.000
68.76000 575.000
68.84000 584.000
68.92000 544.000
69.00000 508.000
69.08000 545.000
69.16000 508.000
69.24000 499.000
69.32000 567.000
69.40000 508.000
69.48000 525.000
69.56000 555.000
69.64000 524.000
69.72000 505.000
69.80000 572.000
69.88000 515.000
69.92000 512.000