File: XRD/64.xy
5.00000 3255.000
5.08000 3258.000
5.16000 3209.000
5.24000 3431.000
5.32000 3511.000
5.40000 3737.000
5.48000 3961.000
5.56000 4122.000
5.64000 4390.000
5.72000 4857.000
5.80000 4828.000
5.88000 4507.000
5.96000 4052.000
6.04000 3685.000
6.12000 3296.000
6.20000 2968.000
6.28000 2744.000
6.36000 2641.000
6.44000 2611.000
6.52000 2337.000
6.60000 2285.000
6.68000 2133.000
6.76000 2193.000
6.84000 2191.000
6.92000 2073.000
7.00000 2080.000
7.08000 2040.000
7.16000 1962.000
7.24000 1929.000
7.32000 1855.000
7.40000 1911.000
7.48000 1900.000
7.56000 1793.000
7.64000 1845.000
7.72000 1853.000
7.80000 1861.000
7.88000 1853.000
7.96000 1800.000
8.04000 1829.000
8.12000 1844.000
8.20000 1897.000
8.28000 1937.000
8.36000 2017.000
8.44000 2216.000
8.52000 2483.000
8.60000 2906.000
8.68000 2546.000
8.76000 2444.000
8.84000 2692.000
8.92000 3063.000
9.00000 3961.000
9.08000 5934.000
9.16000 8666.000
9.24000 15590.000
9.32000 34735.000
9.40000 98828.000
9.48000 343210.000
9.56000 403825.900
9.64000 121791.700
9.72000 34866.000
9.80000 11276.000
9.88000 5259.000
9.96000 3399.000
10.04000 2684.000
10.12000 2196.000
10.20000 1910.000
10.28000 1855.000
10.36000 1635.000
10.44000 1583.000
10.52000 1521.000
10.60000 1420.000
10.68000 1530.000
10.76000 1417.000
10.84000 1365.000
10.92000 1309.000
11.00000 1316.000
11.08000 1313.000
11.16000 1331.000
11.24000 1326.000
11.32000 1215.000
11.40000 1233.000
11.48000 1318.000
11.56000 1278.000
11.64000 1161.000
11.72000 1191.000
11.80000 1201.000
11.88000 1175.000
11.96000 1046.000
12.04000 1163.000
12.12000 1122.000
12.20000 1176.000
12.28000 1068.000
12.36000 1153.000
12.44000 1096.000
12.52000 1117.000
12.60000 1089.000
12.68000 1025.000
12.76000 1059.000
12.84000 1104.000
12.92000 1082.000
13.00000 1066.000
13.08000 1092.000
13.16000 1083.000
13.24000 1004.000
13.32000 1035.000
13.40000 1033.000
13.48000 1056.000
13.56000 1047.000
13.64000 1114.000
13.72000 1072.000
13.80000 1078.000
13.88000 1060.000
13.96000 1088.000
14.04000 1050.000
14.12000 1043.000
14.20000 1105.000
14.28000 1158.000
14.36000 1077.000
14.44000 1130.000
14.52000 1127.000
14.60000 1128.000
14.68000 1119.000
14.76000 1115.000
14.84000 1150.000
14.92000 1078.000
15.00000 1142.000
15.08000 1114.000
15.16000 1120.000
15.24000 1129.000
15.32000 1122.000
15.40000 1179.000
15.48000 1144.000
15.56000 1242.000
15.64000 1204.000
15.72000 1209.000
15.80000 1168.000
15.88000 1216.000
15.96000 1132.000
16.04000 1218.000
16.12000 1179.000
16.20000 1266.000
16.28000 1223.000
16.36000 1267.000
16.44000 1175.000
16.52000 1211.000
16.60000 1270.000
16.68000 1219.000
16.76000 1242.000
16.84000 1285.000
16.92000 1320.000
17.00000 1232.000
17.08000 1258.000
17.16000 1347.000
17.24000 1363.000
17.32000 1355.000
17.40000 1303.000
17.48000 1408.000
17.56000 1384.000
17.64000 1416.000
17.72000 1405.000
17.80000 1454.000
17.88000 1430.000
17.96000 1404.000
18.04000 1397.000
18.12000 1430.000
18.20000 1428.000
18.28000 1460.000
18.36000 1493.000
18.44000 1539.000
18.52000 1533.000
18.60000 1498.000
18.68000 1626.000
18.76000 1610.000
18.84000 1837.000
18.92000 2084.000
19.00000 3049.000
19.08000 3978.000
19.16000 2600.000
19.24000 1883.000
19.32000 1719.000
19.40000 1748.000
19.48000 1687.000
19.56000 1648.000
19.64000 1692.000
19.72000 1671.000
19.80000 1692.000
19.88000 1719.000
19.96000 1781.000
20.04000 1688.000
20.12000 1768.000
20.20000 1695.000
20.28000 1762.000
20.36000 1812.000
20.44000 1772.000
20.52000 1760.000
20.60000 1722.000
20.68000 1839.000
20.76000 1842.000
20.84000 1773.000
20.92000 1895.000
21.00000 1891.000
21.08000 1898.000
21.16000 1903.000
21.24000 1902.000
21.32000 1867.000
21.40000 1952.000
21.48000 1867.000
21.56000 1916.000
21.64000 1991.000
21.72000 1949.000
21.80000 1983.000
21.88000 2032.000
21.96000 1885.000
22.04000 2029.000
22.12000 2016.000
22.20000 1982.000
22.28000 1917.000
22.36000 1994.000
22.44000 1942.000
22.52000 2037.000
22.60000 2028.000
22.68000 2121.000
22.76000 2022.000
22.84000 2059.000
22.92000 2035.000
23.00000 2047.000
23.08000 2085.000
23.16000 2049.000
23.24000 1995.000
23.32000 2031.000
23.40000 2077.000
23.48000 2085.000
23.56000 2068.000
23.64000 2084.000
23.72000 2030.000
23.80000 2126.000
23.88000 1994.000
23.96000 2008.000
24.04000 2058.000
24.12000 2104.000
24.20000 2101.000
24.28000 2050.000
24.36000 2041.000
24.44000 2043.000
24.52000 2058.000
24.60000 2039.000
24.68000 2019.000
24.76000 2010.000
24.84000 2138.000
24.92000 1975.000
25.00000 2006.000
25.08000 1971.000
25.16000 2008.000
25.24000 2071.000
25.32000 1981.000
25.40000 2054.000
25.48000 1993.000
25.56000 1985.000
25.64000 2003.000
25.72000 2050.000
25.80000 2020.000
25.88000 2019.000
25.96000 1991.000
26.04000 2009.000
26.12000 1968.000
26.20000 1958.000
26.28000 1990.000
26.36000 1900.000
26.44000 1971.000
26.52000 1916.000
26.60000 1957.000
26.68000 1873.000
26.76000 1882.000
26.84000 1889.000
26.92000 1919.000
27.00000 1879.000
27.08000 1905.000
27.16000 1944.000
27.24000 1896.000
27.32000 1964.000
27.40000 1910.000
27.48000 1931.000
27.56000 1959.000
27.64000 1904.000
27.72000 1892.000
27.80000 1840.000
27.88000 1829.000
27.96000 1852.000
28.04000 1933.000
28.12000 1928.000
28.20000 1855.000
28.28000 2086.000
28.36000 2069.000
28.44000 2518.000
28.52000 3185.000
28.60000 5829.000
28.68000 13211.000
28.76000 18346.000
28.84000 11214.000
28.92000 4766.000
29.00000 2871.000
29.08000 2218.000
29.16000 2005.000
29.24000 1859.000
29.32000 1838.000
29.40000 1803.000
29.48000 1714.000
29.56000 1729.000
29.64000 1752.000
29.72000 1722.000
29.80000 1712.000
29.88000 1713.000
29.96000 1712.000
30.04000 1727.000
30.12000 1636.000
30.20000 1714.000
30.28000 1703.000
30.36000 1611.000
30.44000 1665.000
30.52000 1587.000
30.60000 1644.000
30.68000 1639.000
30.76000 1575.000
30.84000 1587.000
30.92000 1570.000
31.00000 1597.000
31.08000 1603.000
31.16000 1519.000
31.24000 1588.000
31.32000 1526.000
31.40000 1520.000
31.48000 1518.000
31.56000 1565.000
31.64000 1491.000
31.72000 1538.000
31.80000 1495.000
31.88000 1494.000
31.96000 1499.000
32.04000 1468.000
32.12000 1446.000
32.20000 1464.000
32.28000 1419.000
32.36000 1464.000
32.44000 1395.000
32.52000 1492.000
32.60000 1408.000
32.68000 1397.000
32.76000 1330.000
32.84000 1331.000
32.92000 1328.000
33.00000 1342.000
33.08000 1310.000
33.16000 1404.000
33.24000 1321.000
33.32000 1328.000
33.40000 1345.000
33.48000 1270.000
33.56000 1295.000
33.64000 1232.000
33.72000 1218.000
33.80000 1302.000
33.88000 1250.000
33.96000 1312.000
34.04000 1232.000
34.12000 1253.000
34.20000 1249.000
34.28000 1248.000
34.36000 1217.000
34.44000 1244.000
34.52000 1164.000
34.60000 1132.000
34.68000 1196.000
34.76000 1184.000
34.84000 1171.000
34.92000 1196.000
35.00000 1183.000
35.08000 1057.000
35.16000 1125.000
35.24000 1111.000
35.32000 1100.000
35.40000 1120.000
35.48000 1096.000
35.56000 1057.000
35.64000 1056.000
35.72000 1045.000
35.80000 1152.000
35.88000 1040.000
35.96000 1044.000
36.04000 1051.000
36.12000 940.000
36.20000 1022.000
36.28000 953.000
36.36000 1015.000
36.44000 1035.000
36.52000 1044.000
36.60000 1040.000
36.68000 976.000
36.76000 990.000
36.84000 959.000
36.92000 959.000
37.00000 977.000
37.08000 984.000
37.16000 981.000
37.24000 957.000
37.32000 907.000
37.40000 923.000
37.48000 902.000
37.56000 927.000
37.64000 988.000
37.72000 948.000
37.80000 929.000
37.88000 1003.000
37.96000 958.000
38.04000 989.000
38.12000 1068.000
38.20000 1072.000
38.28000 1267.000
38.36000 1687.000
38.44000 2813.000
38.52000 5808.000
38.60000 12267.000
38.68000 12182.000
38.76000 7524.000
38.84000 3249.000
38.92000 1822.000
39.00000 1243.000
39.08000 1070.000
39.16000 920.000
39.24000 958.000
39.32000 965.000
39.40000 893.000
39.48000 937.000
39.56000 881.000
39.64000 881.000
39.72000 863.000
39.80000 852.000
39.88000 878.000
39.96000 824.000
40.04000 836.000
40.12000 808.000
40.20000 816.000
40.28000 817.000
40.36000 838.000
40.44000 815.000
40.52000 830.000
40.60000 840.000
40.68000 828.000
40.76000 814.000
40.84000 881.000
40.92000 835.000
41.00000 822.000
41.08000 837.000
41.16000 857.000
41.24000 806.000
41.32000 791.000
41.40000 813.000
41.48000 839.000
41.56000 818.000
41.64000 837.000
41.72000 810.000
41.80000 805.000
41.88000 785.000
41.96000 724.000
42.04000 815.000
42.12000 796.000
42.20000 815.000
42.28000 768.000
42.36000 826.000
42.44000 789.000
42.52000 798.000
42.60000 832.000
42.68000 798.000
42.76000 839.000
42.84000 791.000
42.92000 727.000
43.00000 736.000
43.08000 783.000
43.16000 796.000
43.24000 794.000
43.32000 758.000
43.40000 770.000
43.48000 762.000
43.56000 832.000
43.64000 784.000
43.72000 776.000
43.80000 814.000
43.88000 802.000
43.96000 698.000
44.04000 767.000
44.12000 742.000
44.20000 770.000
44.28000 781.000
44.36000 805.000
44.44000 766.000
44.52000 798.000
44.60000 736.000
44.68000 724.000
44.76000 765.000
44.84000 785.000
44.92000 735.000
45.00000 755.000
45.08000 732.000
45.16000 727.000
45.24000 751.000
45.32000 750.000
45.40000 761.000
45.48000 769.000
45.56000 739.000
45.64000 683.000
45.72000 701.000
45.80000 742.000
45.88000 788.000
45.96000 776.000
46.04000 743.000
46.12000 668.000
46.20000 724.000
46.28000 703.000
46.36000 741.000
46.44000 746.000
46.52000 744.000
46.60000 768.000
46.68000 723.000
46.76000 733.000
46.84000 754.000
46.92000 725.000
47.00000 718.000
47.08000 731.000
47.16000 725.000
47.24000 723.000
47.32000 682.000
47.40000 745.000
47.48000 716.000
47.56000 742.000
47.64000 769.000
47.72000 732.000
47.80000 722.000
47.88000 703.000
47.96000 677.000
48.04000 762.000
48.12000 736.000
48.20000 752.000
48.28000 809.000
48.36000 807.000
48.44000 809.000
48.52000 941.000
48.60000 978.000
48.68000 1593.000
48.76000 3015.000
48.84000 3900.000
48.92000 3123.000
49.00000 2183.000
49.08000 1303.000
49.16000 899.000
49.24000 795.000
49.32000 717.000
49.40000 693.000
49.48000 762.000
49.56000 698.000
49.64000 693.000
49.72000 712.000
49.80000 682.000
49.88000 663.000
49.96000 637.000
50.04000 688.000
50.12000 660.000
50.20000 622.000
50.28000 666.000
50.36000 666.000
50.44000 667.000
50.52000 660.000
50.60000 650.000
50.68000 642.000
50.76000 608.000
50.84000 663.000
50.92000 658.000
51.00000 648.000
51.08000 628.000
51.16000 649.000
51.24000 637.000
51.32000 627.000
51.40000 655.000
51.48000 696.000
51.56000 669.000
51.64000 658.000
51.72000 643.000
51.80000 619.000
51.88000 694.000
51.96000 652.000
52.04000 676.000
52.12000 637.000
52.20000 627.000
52.28000 651.000
52.36000 686.000
52.44000 631.000
52.52000 618.000
52.60000 654.000
52.68000 672.000
52.76000 650.000
52.84000 668.000
52.92000 648.000
53.00000 650.000
53.08000 648.000
53.16000 651.000
53.24000 611.000
53.32000 697.000
53.40000 624.000
53.48000 610.000
53.56000 648.000
53.64000 615.000
53.72000 645.000
53.80000 655.000
53.88000 637.000
53.96000 631.000
54.04000 637.000
54.12000 578.000
54.20000 662.000
54.28000 597.000
54.36000 629.000
54.44000 632.000
54.52000 651.000
54.60000 558.000
54.68000 596.000
54.76000 665.000
54.84000 591.000
54.92000 629.000
55.00000 637.000
55.08000 645.000
55.16000 617.000
55.24000 611.000
55.32000 618.000
55.40000 620.000
55.48000 626.000
55.56000 634.000
55.64000 628.000
55.72000 604.000
55.80000 644.000
55.88000 638.000
55.96000 657.000
56.04000 668.000
56.12000 632.000
56.20000 623.000
56.28000 622.000
56.36000 615.000
56.44000 657.000
56.52000 662.000
56.60000 598.000
56.68000 654.000
56.76000 621.000
56.84000 627.000
56.92000 627.000
57.00000 598.000
57.08000 632.000
57.16000 684.000
57.24000 634.000
57.32000 592.000
57.40000 651.000
57.48000 616.000
57.56000 618.000
57.64000 636.000
57.72000 637.000
57.80000 620.000
57.88000 637.000
57.96000 603.000
58.04000 621.000
58.12000 619.000
58.20000 627.000
58.28000 617.000
58.36000 646.000
58.44000 618.000
58.52000 603.000
58.60000 652.000
58.68000 644.000
58.76000 637.000
58.84000 606.000
58.92000 617.000
59.00000 689.000
59.08000 616.000
59.16000 585.000
59.24000 620.000
59.32000 643.000
59.40000 637.000
59.48000 665.000
59.56000 641.000
59.64000 588.000
59.72000 626.000
59.80000 655.000
59.88000 640.000
59.96000 649.000
60.04000 617.000
60.12000 600.000
60.20000 630.000
60.28000 639.000
60.36000 655.000
60.44000 587.000
60.52000 637.000
60.60000 615.000
60.68000 622.000
60.76000 634.000
60.84000 606.000
60.92000 632.000
61.00000 621.000
61.08000 610.000
61.16000 642.000
61.24000 623.000
61.32000 575.000
61.40000 578.000
61.48000 642.000
61.56000 584.000
61.64000 670.000
61.72000 603.000
61.80000 638.000
61.88000 637.000
61.96000 659.000
62.04000 612.000
62.12000 618.000
62.20000 600.000
62.28000 561.000
62.36000 634.000
62.44000 611.000
62.52000 628.000
62.60000 685.000
62.68000 628.000
62.76000 602.000
62.84000 666.000
62.92000 628.000
63.00000 641.000
63.08000 587.000
63.16000 612.000
63.24000 584.000
63.32000 542.000
63.40000 639.000
63.48000 578.000
63.56000 620.000
63.64000 607.000
63.72000 631.000
63.80000 605.000
63.88000 588.000
63.96000 587.000
64.04000 576.000
64.12000 640.000
64.20000 624.000
64.28000 598.000
64.36000 628.000
64.44000 575.000
64.52000 605.000
64.60000 591.000
64.68000 571.000
64.76000 558.000
64.84000 633.000
64.92000 556.000
65.00000 630.000
65.08000 571.000
65.16000 583.000
65.24000 609.000
65.32000 592.000
65.40000 540.000
65.48000 597.000
65.56000 531.000
65.64000 622.000
65.72000 565.000
65.80000 567.000
65.88000 558.000
65.96000 588.000
66.04000 630.000
66.12000 540.000
66.20000 527.000
66.28000 552.000
66.36000 578.000
66.44000 598.000
66.52000 555.000
66.60000 566.000
66.68000 548.000
66.76000 545.000
66.84000 497.000
66.92000 559.000
67.00000 568.000
67.08000 568.000
67.16000 610.000
67.24000 593.000
67.32000 604.000
67.40000 608.000
67.48000 573.000
67.56000 516.000
67.64000 566.000
67.72000 549.000
67.80000 565.000
67.88000 556.000
67.96000 566.000
68.04000 566.000
68.12000 513.000
68.20000 527.000
68.28000 580.000
68.36000 537.000
68.44000 556.000
68.52000 581.000
68.60000 518.000
68.68000 573.000
68.76000 493.000
68.84000 566.000
68.92000 496.000
69.00000 569.000
69.08000 516.000
69.16000 551.000
69.24000 537.000
69.32000 545.000
69.40000 536.000
69.48000 464.000
69.56000 527.000
69.64000 520.000
69.72000 550.000
69.80000 512.000
69.88000 497.000
69.92000 537.000