File: XRD/65.xy
5.00000 4729.000
5.08000 4586.000
5.16000 4665.000
5.24000 4510.000
5.32000 4638.000
5.40000 4479.000
5.48000 4394.000
5.56000 4270.000
5.64000 4278.000
5.72000 4109.000
5.80000 4139.000
5.88000 3943.000
5.96000 3894.000
6.04000 3887.000
6.12000 3754.000
6.20000 3732.000
6.28000 3751.000
6.36000 3727.000
6.44000 3600.000
6.52000 3671.000
6.60000 3525.000
6.68000 3530.000
6.76000 3403.000
6.84000 3346.000
6.92000 3323.000
7.00000 3269.000
7.08000 3268.000
7.16000 3225.000
7.24000 3240.000
7.32000 3231.000
7.40000 3123.000
7.48000 3008.000
7.56000 3062.000
7.64000 3016.000
7.72000 3046.000
7.80000 2865.000
7.88000 2909.000
7.96000 2903.000
8.04000 2843.000
8.12000 2867.000
8.20000 2762.000
8.28000 2771.000
8.36000 2791.000
8.44000 2753.000
8.52000 2665.000
8.60000 2780.000
8.68000 2811.000
8.76000 2713.000
8.84000 2596.000
8.92000 2736.000
9.00000 2645.000
9.08000 2500.000
9.16000 2472.000
9.24000 2478.000
9.32000 2405.000
9.40000 2363.000
9.48000 2368.000
9.56000 2428.000
9.64000 2322.000
9.72000 2367.000
9.80000 2333.000
9.88000 2340.000
9.96000 2337.000
10.04000 2305.000
10.12000 2365.000
10.20000 2329.000
10.28000 2301.000
10.36000 2278.000
10.44000 2315.000
10.52000 2284.000
10.60000 2296.000
10.68000 2226.000
10.76000 2217.000
10.84000 2198.000
10.92000 2224.000
11.00000 2238.000
11.08000 2197.000
11.16000 2116.000
11.24000 2176.000
11.32000 2157.000
11.40000 2122.000
11.48000 2075.000
11.56000 2049.000
11.64000 2020.000
11.72000 2010.000
11.80000 2027.000
11.88000 2062.000
11.96000 2031.000
12.04000 2140.000
12.12000 2038.000
12.20000 2001.000
12.28000 2043.000
12.36000 2113.000
12.44000 2054.000
12.52000 2075.000
12.60000 2132.000
12.68000 2105.000
12.76000 2147.000
12.84000 2103.000
12.92000 2033.000
13.00000 2046.000
13.08000 2032.000
13.16000 2072.000
13.24000 2182.000
13.32000 2474.000
13.40000 2771.000
13.48000 2988.000
13.56000 3020.000
13.64000 2665.000
13.72000 2442.000
13.80000 2122.000
13.88000 2043.000
13.96000 2064.000
14.04000 2062.000
14.12000 2114.000
14.20000 2071.000
14.28000 2042.000
14.36000 1981.000
14.44000 2016.000
14.52000 2014.000
14.60000 2027.000
14.68000 1945.000
14.76000 1959.000
14.84000 2041.000
14.92000 2055.000
15.00000 2111.000
15.08000 2139.000
15.16000 2203.000
15.24000 2312.000
15.32000 2684.000
15.40000 3407.000
15.48000 4681.000
15.56000 5954.000
15.64000 6346.000
15.72000 5440.000
15.80000 4038.000
15.88000 2843.000
15.96000 2154.000
16.04000 2203.000
16.12000 2091.000
16.20000 2043.000
16.28000 2036.000
16.36000 2096.000
16.44000 2052.000
16.52000 2092.000
16.60000 2111.000
16.68000 2170.000
16.76000 2146.000
16.84000 2048.000
16.92000 2141.000
17.00000 2157.000
17.08000 2171.000
17.16000 2168.000
17.24000 2179.000
17.32000 2198.000
17.40000 2242.000
17.48000 2234.000
17.56000 2157.000
17.64000 2258.000
17.72000 2265.000
17.80000 2410.000
17.88000 2533.000
17.96000 2530.000
18.04000 2497.000
18.12000 2380.000
18.20000 2378.000
18.28000 2398.000
18.36000 2387.000
18.44000 2364.000
18.52000 2483.000
18.60000 2413.000
18.68000 2444.000
18.76000 2451.000
18.84000 2481.000
18.92000 2440.000
19.00000 2560.000
19.08000 2495.000
19.16000 2544.000
19.24000 2540.000
19.32000 2546.000
19.40000 2578.000
19.48000 2633.000
19.56000 2551.000
19.64000 2661.000
19.72000 2578.000
19.80000 2727.000
19.88000 2703.000
19.96000 2779.000
20.04000 2782.000
20.12000 2674.000
20.20000 2779.000
20.28000 2819.000
20.36000 2897.000
20.44000 2785.000
20.52000 2789.000
20.60000 2869.000
20.68000 2922.000
20.76000 2842.000
20.84000 2789.000
20.92000 2960.000
21.00000 2976.000
21.08000 2955.000
21.16000 2936.000
21.24000 3061.000
21.32000 2952.000
21.40000 3092.000
21.48000 3027.000
21.56000 3178.000
21.64000 3070.000
21.72000 3158.000
21.80000 3438.000
21.88000 3658.000
21.96000 4726.000
22.04000 6558.000
22.12000 8626.000
22.20000 9774.000
22.28000 8854.000
22.36000 6931.000
22.44000 4920.000
22.52000 3481.000
22.60000 3363.000
22.68000 3190.000
22.76000 3260.000
22.84000 3181.000
22.92000 3158.000
23.00000 3265.000
23.08000 3209.000
23.16000 3132.000
23.24000 3170.000
23.32000 3283.000
23.40000 3163.000
23.48000 3262.000
23.56000 3368.000
23.64000 3234.000
23.72000 3209.000
23.80000 3217.000
23.88000 3222.000
23.96000 3317.000
24.04000 3315.000
24.12000 3338.000
24.20000 3353.000
24.28000 3178.000
24.36000 3194.000
24.44000 3182.000
24.52000 3165.000
24.60000 3213.000
24.68000 3201.000
24.76000 3110.000
24.84000 3160.000
24.92000 3162.000
25.00000 3259.000
25.08000 3199.000
25.16000 3161.000
25.24000 3141.000
25.32000 2993.000
25.40000 3238.000
25.48000 3113.000
25.56000 3161.000
25.64000 3151.000
25.72000 3079.000
25.80000 3113.000
25.88000 3268.000
25.96000 3304.000
26.04000 3739.000
26.12000 3984.000
26.20000 4118.000
26.28000 3654.000
26.36000 3413.000
26.44000 3219.000
26.52000 3194.000
26.60000 3086.000
26.68000 2980.000
26.76000 3050.000
26.84000 3204.000
26.92000 3544.000
27.00000 3964.000
27.08000 5175.000
27.16000 7509.000
27.24000 9827.000
27.32000 10704.000
27.40000 9256.000
27.48000 7038.000
27.56000 4791.000
27.64000 3500.000
27.72000 3103.000
27.80000 2999.000
27.88000 2887.000
27.96000 2752.000
28.04000 2856.000
28.12000 2821.000
28.20000 2853.000
28.28000 2857.000
28.36000 2915.000
28.44000 2930.000
28.52000 2841.000
28.60000 2825.000
28.68000 2862.000
28.76000 2881.000
28.84000 2837.000
28.92000 2811.000
29.00000 2696.000
29.08000 2734.000
29.16000 2810.000
29.24000 2676.000
29.32000 2775.000
29.40000 3059.000
29.48000 3247.000
29.56000 3375.000
29.64000 3370.000
29.72000 3045.000
29.80000 2839.000
29.88000 2710.000
29.96000 2663.000
30.04000 2736.000
30.12000 2567.000
30.20000 2659.000
30.28000 2582.000
30.36000 2676.000
30.44000 2733.000
30.52000 2674.000
30.60000 2682.000
30.68000 2756.000
30.76000 2905.000
30.84000 2921.000
30.92000 2804.000
31.00000 2784.000
31.08000 2756.000
31.16000 2973.000
31.24000 3212.000
31.32000 3432.000
31.40000 4988.000
31.48000 7946.000
31.56000 12084.000
31.64000 14757.000
31.72000 14347.000
31.80000 11055.000
31.88000 6910.000
31.96000 3884.000
32.04000 2812.000
32.12000 2436.000
32.20000 2375.000
32.28000 2407.000
32.36000 2261.000
32.44000 2366.000
32.52000 2310.000
32.60000 2255.000
32.68000 2231.000
32.76000 2209.000
32.84000 2151.000
32.92000 2269.000
33.00000 2146.000
33.08000 2280.000
33.16000 2237.000
33.24000 2163.000
33.32000 2087.000
33.40000 2169.000
33.48000 2111.000
33.56000 2133.000
33.64000 2218.000
33.72000 2282.000
33.80000 2320.000
33.88000 2331.000
33.96000 2424.000
34.04000 2446.000
34.12000 2321.000
34.20000 2154.000
34.28000 2063.000
34.36000 1927.000
34.44000 1935.000
34.52000 2001.000
34.60000 1956.000
34.68000 1968.000
34.76000 1935.000
34.84000 1927.000
34.92000 1841.000
35.00000 1780.000
35.08000 1794.000
35.16000 1821.000
35.24000 1853.000
35.32000 1880.000
35.40000 2101.000
35.48000 2138.000
35.56000 2135.000
35.64000 2117.000
35.72000 1893.000
35.80000 1806.000
35.88000 1641.000
35.96000 1636.000
36.04000 1650.000
36.12000 1628.000
36.20000 1657.000
36.28000 1597.000
36.36000 1602.000
36.44000 1580.000
36.52000 1548.000
36.60000 1534.000
36.68000 1543.000
36.76000 1547.000
36.84000 1563.000
36.92000 1554.000
37.00000 1588.000
37.08000 1563.000
37.16000 1525.000
37.24000 1476.000
37.32000 1526.000
37.40000 1475.000
37.48000 1491.000
37.56000 1546.000
37.64000 1482.000
37.72000 1507.000
37.80000 1479.000
37.88000 1545.000
37.96000 1521.000
38.04000 1346.000
38.12000 1413.000
38.20000 1436.000
38.28000 1329.000
38.36000 1383.000
38.44000 1457.000
38.52000 1425.000
38.60000 1467.000
38.68000 1429.000
38.76000 1586.000
38.84000 1723.000
38.92000 2150.000
39.00000 2407.000
39.08000 2385.000
39.16000 2207.000
39.24000 1889.000
39.32000 1591.000
39.40000 1458.000
39.48000 1361.000
39.56000 1361.000
39.64000 1370.000
39.72000 1303.000
39.80000 1335.000
39.88000 1345.000
39.96000 1375.000
40.04000 1382.000
40.12000 1381.000
40.20000 1344.000
40.28000 1341.000
40.36000 1318.000
40.44000 1410.000
40.52000 1306.000
40.60000 1330.000
40.68000 1371.000
40.76000 1291.000
40.84000 1359.000
40.92000 1382.000
41.00000 1403.000
41.08000 1304.000
41.16000 1386.000
41.24000 1408.000
41.32000 1424.000
41.40000 1461.000
41.48000 1543.000
41.56000 1551.000
41.64000 1528.000
41.72000 1523.000
41.80000 1393.000
41.88000 1387.000
41.96000 1350.000
42.04000 1273.000
42.12000 1341.000
42.20000 1325.000
42.28000 1435.000
42.36000 1340.000
42.44000 1330.000
42.52000 1338.000
42.60000 1240.000
42.68000 1292.000
42.76000 1310.000
42.84000 1397.000
42.92000 1290.000
43.00000 1355.000
43.08000 1249.000
43.16000 1383.000
43.24000 1341.000
43.32000 1315.000
43.40000 1334.000
43.48000 1316.000
43.56000 1315.000
43.64000 1297.000
43.72000 1333.000
43.80000 1305.000
43.88000 1327.000
43.96000 1284.000
44.04000 1329.000
44.12000 1429.000
44.20000 1376.000
44.28000 1411.000
44.36000 1482.000
44.44000 1378.000
44.52000 1404.000
44.60000 1406.000
44.68000 1366.000
44.76000 1321.000
44.84000 1428.000
44.92000 1407.000
45.00000 1464.000
45.08000 1685.000
45.16000 1984.000
45.24000 2553.000
45.32000 3347.000
45.40000 3838.000
45.48000 3947.000
45.56000 3350.000
45.64000 2557.000
45.72000 1937.000
45.80000 1497.000
45.88000 1352.000
45.96000 1310.000
46.04000 1303.000
46.12000 1281.000
46.20000 1340.000
46.28000 1221.000
46.36000 1226.000
46.44000 1202.000
46.52000 1276.000
46.60000 1218.000
46.68000 1273.000
46.76000 1264.000
46.84000 1223.000
46.92000 1192.000
47.00000 1196.000
47.08000 1274.000
47.16000 1267.000
47.24000 1181.000
47.32000 1226.000
47.40000 1187.000
47.48000 1297.000
47.56000 1255.000
47.64000 1248.000
47.72000 1180.000
47.80000 1283.000
47.88000 1181.000
47.96000 1164.000
48.04000 1192.000
48.12000 1198.000
48.20000 1347.000
48.28000 1361.000
48.36000 1412.000
48.44000 1422.000
48.52000 1268.000
48.60000 1229.000
48.68000 1235.000
48.76000 1222.000
48.84000 1212.000
48.92000 1111.000
49.00000 1170.000
49.08000 1144.000
49.16000 1146.000
49.24000 1140.000
49.32000 1185.000
49.40000 1179.000
49.48000 1115.000
49.56000 1135.000
49.64000 1202.000
49.72000 1176.000
49.80000 1124.000
49.88000 1110.000
49.96000 1142.000
50.04000 1141.000
50.12000 1092.000
50.20000 1206.000
50.28000 1139.000
50.36000 1200.000
50.44000 1156.000
50.52000 1126.000
50.60000 1152.000
50.68000 1139.000
50.76000 1185.000
50.84000 1156.000
50.92000 1311.000
51.00000 1367.000
51.08000 1487.000
51.16000 1576.000
51.24000 1545.000
51.32000 1388.000
51.40000 1317.000
51.48000 1165.000
51.56000 1157.000
51.64000 1139.000
51.72000 1097.000
51.80000 1139.000
51.88000 1134.000
51.96000 1156.000
52.04000 1154.000
52.12000 1074.000
52.20000 1190.000
52.28000 1106.000
52.36000 1077.000
52.44000 1086.000
52.52000 1159.000
52.60000 1088.000
52.68000 1121.000
52.76000 1123.000
52.84000 1153.000
52.92000 1095.000
53.00000 1126.000
53.08000 1113.000
53.16000 1134.000
53.24000 1135.000
53.32000 1103.000
53.40000 1159.000
53.48000 1149.000
53.56000 1110.000
53.64000 1175.000
53.72000 1265.000
53.80000 1308.000
53.88000 1319.000
53.96000 1262.000
54.04000 1250.000
54.12000 1219.000
54.20000 1161.000
54.28000 1053.000
54.36000 1099.000
54.44000 1091.000
54.52000 1113.000
54.60000 1106.000
54.68000 1129.000
54.76000 1089.000
54.84000 1123.000
54.92000 1115.000
55.00000 1170.000
55.08000 1089.000
55.16000 1100.000
55.24000 1151.000
55.32000 1153.000
55.40000 1155.000
55.48000 1189.000
55.56000 1138.000
55.64000 1099.000
55.72000 1177.000
55.80000 1205.000
55.88000 1195.000
55.96000 1275.000
56.04000 1245.000
56.12000 1348.000
56.20000 1536.000
56.28000 2008.000
56.36000 2440.000
56.44000 2785.000
56.52000 2898.000
56.60000 2483.000
56.68000 2076.000
56.76000 1633.000
56.84000 1393.000
56.92000 1268.000
57.00000 1153.000
57.08000 1130.000
57.16000 1132.000
57.24000 1111.000
57.32000 1236.000
57.40000 1097.000
57.48000 1152.000
57.56000 1136.000
57.64000 1118.000
57.72000 1127.000
57.80000 1125.000
57.88000 1131.000
57.96000 1135.000
58.04000 1148.000
58.12000 1096.000
58.20000 1136.000
58.28000 1148.000
58.36000 1191.000
58.44000 1112.000
58.52000 1152.000
58.60000 1147.000
58.68000 1240.000
58.76000 1088.000
58.84000 1121.000
58.92000 1217.000
59.00000 1156.000
59.08000 1175.000
59.16000 1132.000
59.24000 1181.000
59.32000 1096.000
59.40000 1170.000
59.48000 1156.000
59.56000 1116.000
59.64000 1163.000
59.72000 1071.000
59.80000 1097.000
59.88000 1059.000
59.96000 1117.000
60.04000 1108.000
60.12000 1111.000
60.20000 1118.000
60.28000 1097.000
60.36000 1125.000
60.44000 1111.000
60.52000 1129.000
60.60000 1090.000
60.68000 1055.000
60.76000 1041.000
60.84000 1098.000
60.92000 1083.000
61.00000 1129.000
61.08000 1151.000
61.16000 1180.000
61.24000 1167.000
61.32000 1243.000
61.40000 1302.000
61.48000 1299.000
61.56000 1307.000
61.64000 1222.000
61.72000 1231.000
61.80000 1181.000
61.88000 1095.000
61.96000 1098.000
62.04000 1150.000
62.12000 1055.000
62.20000 1056.000
62.28000 1048.000
62.36000 1055.000
62.44000 1090.000
62.52000 1106.000
62.60000 1118.000
62.68000 1111.000
62.76000 1112.000
62.84000 1089.000
62.92000 1079.000
63.00000 1084.000
63.08000 1077.000
63.16000 1087.000
63.24000 1125.000
63.32000 1150.000
63.40000 1043.000
63.48000 1059.000
63.56000 1082.000
63.64000 1128.000
63.72000 1016.000
63.80000 1104.000
63.88000 1082.000
63.96000 1060.000
64.04000 1065.000
64.12000 1088.000
64.20000 1063.000
64.28000 1046.000
64.36000 1067.000
64.44000 1076.000
64.52000 1065.000
64.60000 1133.000
64.68000 1057.000
64.76000 1027.000
64.84000 1091.000
64.92000 985.000
65.00000 1071.000
65.08000 1055.000
65.16000 1027.000
65.24000 1047.000
65.32000 1068.000
65.40000 1009.000
65.48000 1106.000
65.56000 1030.000
65.64000 1084.000
65.72000 1078.000
65.80000 1052.000
65.88000 1091.000
65.96000 1105.000
66.04000 1244.000
66.12000 1352.000
66.20000 1436.000
66.28000 1489.000
66.36000 1453.000
66.44000 1329.000
66.52000 1235.000
66.60000 1120.000
66.68000 1087.000
66.76000 1028.000
66.84000 1009.000
66.92000 1062.000
67.00000 982.000
67.08000 1091.000
67.16000 1009.000
67.24000 1008.000
67.32000 1013.000
67.40000 1049.000
67.48000 1026.000
67.56000 1009.000
67.64000 963.000
67.72000 986.000
67.80000 1019.000
67.88000 1019.000
67.96000 960.000
68.04000 990.000
68.12000 1051.000
68.20000 1014.000
68.28000 1011.000
68.36000 1007.000
68.44000 1052.000
68.52000 1011.000
68.60000 995.000
68.68000 1036.000
68.76000 1052.000
68.84000 972.000
68.92000 968.000
69.00000 984.000
69.08000 929.000
69.16000 979.000
69.24000 983.000
69.32000 993.000
69.40000 958.000
69.48000 991.000
69.56000 948.000
69.64000 1020.000
69.72000 928.000
69.80000 918.000
69.88000 996.000
69.92000 997.000