File: XRD/66.xy
5.00000 234.000
5.04000 263.000
5.08000 219.000
5.12000 235.000
5.16000 242.000
5.20000 209.000
5.24000 215.000
5.28000 240.000
5.32000 186.000
5.36000 216.000
5.40000 208.000
5.44000 213.000
5.48000 202.000
5.52000 201.000
5.56000 238.000
5.60000 219.000
5.64000 212.000
5.68000 210.000
5.72000 184.000
5.76000 209.000
5.80000 189.000
5.84000 218.000
5.88000 221.000
5.92000 203.000
5.96000 238.000
6.00000 209.000
6.04000 207.000
6.08000 216.000
6.12000 198.000
6.16000 205.000
6.20000 187.000
6.24000 163.000
6.28000 200.000
6.32000 213.000
6.36000 202.000
6.40000 186.000
6.44000 181.000
6.48000 187.000
6.52000 184.000
6.56000 195.000
6.60000 171.000
6.64000 185.000
6.68000 173.000
6.72000 152.000
6.76000 177.000
6.80000 158.000
6.84000 175.000
6.88000 189.000
6.92000 173.000
6.96000 172.000
7.00000 168.000
7.04000 164.000
7.08000 159.000
7.12000 151.000
7.16000 172.000
7.20000 179.000
7.24000 176.000
7.28000 177.000
7.32000 161.000
7.36000 167.000
7.40000 181.000
7.44000 162.000
7.48000 167.000
7.52000 143.000
7.56000 161.000
7.60000 151.000
7.64000 143.000
7.68000 164.000
7.72000 117.000
7.76000 142.000
7.80000 149.000
7.84000 167.000
7.88000 147.000
7.92000 138.000
7.96000 162.000
8.00000 128.000
8.04000 150.000
8.08000 163.000
8.12000 139.000
8.16000 154.000
8.20000 151.000
8.24000 140.000
8.28000 129.000
8.32000 159.000
8.36000 158.000
8.40000 163.000
8.44000 156.000
8.48000 131.000
8.52000 154.000
8.56000 152.000
8.60000 139.000
8.64000 147.000
8.68000 139.000
8.72000 157.000
8.76000 155.000
8.80000 156.000
8.84000 148.000
8.88000 184.000
8.92000 181.000
8.96000 151.000
9.00000 155.000
9.04000 154.000
9.08000 161.000
9.12000 163.000
9.16000 149.000
9.20000 156.000
9.24000 123.000
9.28000 138.000
9.32000 130.000
9.36000 152.000
9.40000 151.000
9.44000 132.000
9.48000 144.000
9.52000 131.000
9.56000 134.000
9.60000 121.000
9.64000 133.000
9.68000 120.000
9.72000 120.000
9.76000 100.000
9.80000 110.000
9.84000 127.000
9.88000 108.000
9.92000 132.000
9.96000 119.000
10.00000 133.000
10.04000 119.000
10.08000 139.000
10.12000 135.000
10.16000 116.000
10.20000 110.000
10.24000 113.000
10.28000 113.000
10.32000 105.000
10.36000 109.000
10.40000 114.000
10.44000 117.000
10.48000 115.000
10.52000 99.000
10.56000 94.000
10.60000 130.000
10.64000 98.000
10.68000 137.000
10.72000 102.000
10.76000 114.000
10.80000 95.000
10.84000 122.000
10.88000 109.000
10.92000 121.000
10.96000 124.000
11.00000 98.000
11.04000 117.000
11.08000 85.000
11.12000 122.000
11.16000 117.000
11.20000 133.000
11.24000 108.000
11.28000 110.000
11.32000 115.000
11.36000 96.000
11.40000 121.000
11.44000 114.000
11.48000 113.000
11.52000 92.000
11.56000 108.000
11.60000 94.000
11.64000 113.000
11.68000 109.000
11.72000 98.000
11.76000 106.000
11.80000 117.000
11.84000 147.000
11.88000 122.000
11.92000 106.000
11.96000 125.000
12.00000 101.000
12.04000 104.000
12.08000 104.000
12.12000 127.000
12.16000 131.000
12.20000 112.000
12.24000 106.000
12.28000 112.000
12.32000 119.000
12.36000 129.000
12.40000 110.000
12.44000 117.000
12.48000 94.000
12.52000 128.000
12.56000 119.000
12.60000 111.000
12.64000 125.000
12.68000 115.000
12.72000 162.000
12.76000 150.000
12.80000 165.000
12.84000 166.000
12.88000 196.000
12.92000 168.000
12.96000 128.000
13.00000 107.000
13.04000 116.000
13.08000 104.000
13.12000 88.000
13.16000 100.000
13.20000 116.000
13.24000 111.000
13.28000 90.000
13.32000 82.000
13.36000 107.000
13.40000 91.000
13.44000 105.000
13.48000 117.000
13.52000 111.000
13.56000 108.000
13.60000 97.000
13.64000 115.000
13.68000 112.000
13.72000 97.000
13.76000 107.000
13.80000 116.000
13.84000 121.000
13.88000 115.000
13.92000 102.000
13.96000 99.000
14.00000 104.000
14.04000 103.000
14.08000 92.000
14.12000 94.000
14.16000 112.000
14.20000 100.000
14.24000 76.000
14.28000 94.000
14.32000 78.000
14.36000 102.000
14.40000 94.000
14.44000 100.000
14.48000 97.000
14.52000 69.000
14.56000 94.000
14.60000 95.000
14.64000 98.000
14.68000 92.000
14.72000 92.000
14.76000 102.000
14.80000 100.000
14.84000 86.000
14.88000 101.000
14.92000 77.000
14.96000 109.000
15.00000 101.000
15.04000 83.000
15.08000 107.000
15.12000 85.000
15.16000 111.000
15.20000 85.000
15.24000 98.000
15.28000 93.000
15.32000 96.000
15.36000 109.000
15.40000 101.000
15.44000 118.000
15.48000 120.000
15.52000 111.000
15.56000 127.000
15.60000 126.000
15.64000 132.000
15.68000 159.000
15.72000 141.000
15.76000 174.000
15.80000 199.000
15.84000 144.000
15.88000 145.000
15.92000 106.000
15.96000 108.000
16.00000 109.000
16.04000 98.000
16.08000 76.000
16.12000 94.000
16.16000 87.000
16.20000 74.000
16.24000 88.000
16.28000 93.000
16.32000 96.000
16.36000 80.000
16.40000 89.000
16.44000 95.000
16.48000 70.000
16.52000 85.000
16.56000 95.000
16.60000 100.000
16.64000 95.000
16.68000 70.000
16.72000 87.000
16.76000 83.000
16.80000 107.000
16.84000 82.000
16.88000 102.000
16.92000 80.000
16.96000 92.000
17.00000 99.000
17.04000 102.000
17.08000 106.000
17.12000 90.000
17.16000 97.000
17.20000 81.000
17.24000 86.000
17.28000 71.000
17.32000 89.000
17.36000 88.000
17.40000 75.000
17.44000 91.000
17.48000 84.000
17.52000 89.000
17.56000 96.000
17.60000 84.000
17.64000 82.000
17.68000 77.000
17.72000 89.000
17.76000 81.000
17.80000 87.000
17.84000 89.000
17.88000 101.000
17.92000 93.000
17.96000 82.000
18.00000 103.000
18.04000 107.000
18.08000 119.000
18.12000 107.000
18.16000 119.000
18.20000 109.000
18.24000 114.000
18.28000 90.000
18.32000 99.000
18.36000 88.000
18.40000 91.000
18.44000 82.000
18.48000 76.000
18.52000 84.000
18.56000 80.000
18.60000 83.000
18.64000 93.000
18.68000 84.000
18.72000 77.000
18.76000 82.000
18.80000 102.000
18.84000 84.000
18.88000 92.000
18.92000 86.000
18.96000 100.000
19.00000 90.000
19.04000 93.000
19.08000 79.000
19.12000 88.000
19.16000 89.000
19.20000 102.000
19.24000 89.000
19.28000 96.000
19.32000 93.000
19.36000 97.000
19.40000 95.000
19.44000 91.000
19.48000 101.000
19.52000 93.000
19.56000 102.000
19.60000 87.000
19.64000 94.000
19.68000 103.000
19.72000 87.000
19.76000 109.000
19.80000 104.000
19.84000 109.000
19.88000 95.000
19.92000 102.000
19.96000 102.000
20.00000 92.000
20.04000 112.000
20.08000 124.000
20.12000 126.000
20.16000 153.000
20.20000 157.000
20.24000 179.000
20.28000 187.000
20.32000 229.000
20.36000 241.000
20.40000 250.000
20.44000 312.000
20.48000 408.000
20.52000 613.000
20.56000 749.000
20.60000 930.000
20.64000 1133.000
20.68000 1048.000
20.72000 684.000
20.76000 387.000
20.80000 250.000
20.84000 182.000
20.88000 115.000
20.92000 122.000
20.96000 125.000
21.00000 94.000
21.04000 101.000
21.08000 91.000
21.12000 102.000
21.16000 99.000
21.20000 92.000
21.24000 94.000
21.28000 102.000
21.32000 96.000
21.36000 97.000
21.40000 91.000
21.44000 104.000
21.48000 93.000
21.52000 99.000
21.56000 86.000
21.60000 89.000
21.64000 101.000
21.68000 104.000
21.72000 105.000
21.76000 92.000
21.80000 103.000
21.84000 86.000
21.88000 91.000
21.92000 95.000
21.96000 105.000
22.00000 105.000
22.04000 113.000
22.08000 126.000
22.12000 141.000
22.16000 176.000
22.20000 202.000
22.24000 240.000
22.28000 299.000
22.32000 339.000
22.36000 352.000
22.40000 420.000
22.44000 416.000
22.48000 284.000
22.52000 223.000
22.56000 164.000
22.60000 159.000
22.64000 130.000
22.68000 116.000
22.72000 116.000
22.76000 123.000
22.80000 116.000
22.84000 118.000
22.88000 115.000
22.92000 115.000
22.96000 104.000
23.00000 118.000
23.04000 109.000
23.08000 113.000
23.12000 123.000
23.16000 134.000
23.20000 120.000
23.24000 128.000
23.28000 184.000
23.32000 204.000
23.36000 180.000
23.40000 199.000
23.44000 213.000
23.48000 188.000
23.52000 155.000
23.56000 183.000
23.60000 153.000
23.64000 132.000
23.68000 154.000
23.72000 104.000
23.76000 109.000
23.80000 129.000
23.84000 99.000
23.88000 100.000
23.92000 110.000
23.96000 87.000
24.00000 106.000
24.04000 112.000
24.08000 109.000
24.12000 86.000
24.16000 96.000
24.20000 103.000
24.24000 111.000
24.28000 110.000
24.32000 117.000
24.36000 97.000
24.40000 110.000
24.44000 103.000
24.48000 102.000
24.52000 95.000
24.56000 83.000
24.60000 93.000
24.64000 114.000
24.68000 109.000
24.72000 105.000
24.76000 118.000
24.80000 134.000
24.84000 170.000
24.88000 199.000
24.92000 195.000
24.96000 163.000
25.00000 122.000
25.04000 106.000
25.08000 106.000
25.12000 105.000
25.16000 89.000
25.20000 98.000
25.24000 97.000
25.28000 97.000
25.32000 93.000
25.36000 92.000
25.40000 97.000
25.44000 102.000
25.48000 97.000
25.52000 107.000
25.56000 111.000
25.60000 99.000
25.64000 108.000
25.68000 107.000
25.72000 137.000
25.76000 144.000
25.80000 172.000
25.84000 166.000
25.88000 198.000
25.92000 222.000
25.96000 208.000
26.00000 207.000
26.04000 223.000
26.08000 187.000
26.12000 165.000
26.16000 130.000
26.20000 143.000
26.24000 117.000
26.28000 129.000
26.32000 126.000
26.36000 169.000
26.40000 161.000
26.44000 188.000
26.48000 179.000
26.52000 145.000
26.56000 140.000
26.60000 147.000
26.64000 155.000
26.68000 140.000
26.72000 137.000
26.76000 147.000
26.80000 134.000
26.84000 167.000
26.88000 160.000
26.92000 174.000
26.96000 161.000
27.00000 149.000
27.04000 178.000
27.08000 182.000
27.12000 188.000
27.16000 244.000
27.20000 309.000
27.24000 284.000
27.28000 380.000
27.32000 390.000
27.36000 376.000
27.40000 491.000
27.44000 596.000
27.48000 747.000
27.52000 854.000
27.56000 810.000
27.60000 646.000
27.64000 481.000
27.68000 324.000
27.72000 274.000
27.76000 190.000
27.80000 215.000
27.84000 195.000
27.88000 212.000
27.92000 274.000
27.96000 335.000
28.00000 344.000
28.04000 305.000
28.08000 261.000
28.12000 217.000
28.16000 149.000
28.20000 158.000
28.24000 127.000
28.28000 129.000
28.32000 109.000
28.36000 124.000
28.40000 127.000
28.44000 125.000
28.48000 153.000
28.52000 147.000
28.56000 170.000
28.60000 190.000
28.64000 175.000
28.68000 197.000
28.72000 222.000
28.76000 251.000
28.80000 246.000
28.84000 216.000
28.88000 241.000
28.92000 243.000
28.96000 264.000
29.00000 355.000
29.04000 441.000
29.08000 546.000
29.12000 742.000
29.16000 1063.000
29.20000 1531.000
29.24000 2063.000
29.28000 3020.000
29.32000 4387.000
29.36000 4481.000
29.40000 3831.000
29.44000 2735.000
29.48000 1588.000
29.52000 917.000
29.56000 589.000
29.60000 361.000
29.64000 300.000
29.68000 256.000
29.72000 266.000
29.76000 273.000
29.80000 215.000
29.84000 192.000
29.88000 198.000
29.92000 207.000
29.96000 156.000
30.00000 170.000
30.04000 148.000
30.08000 142.000
30.12000 123.000
30.16000 114.000
30.20000 99.000
30.24000 132.000
30.28000 87.000
30.32000 100.000
30.36000 98.000
30.40000 107.000
30.44000 118.000
30.48000 127.000
30.52000 139.000
30.56000 122.000
30.60000 105.000
30.64000 111.000
30.68000 119.000
30.72000 111.000
30.76000 144.000
30.80000 125.000
30.84000 110.000
30.88000 123.000
30.92000 126.000
30.96000 108.000
31.00000 116.000
31.04000 97.000
31.08000 104.000
31.12000 108.000
31.16000 96.000
31.20000 103.000
31.24000 108.000
31.28000 88.000
31.32000 104.000
31.36000 113.000
31.40000 127.000
31.44000 104.000
31.48000 138.000
31.52000 139.000
31.56000 167.000
31.60000 203.000
31.64000 197.000
31.68000 262.000
31.72000 333.000
31.76000 436.000
31.80000 569.000
31.84000 728.000
31.88000 850.000
31.92000 981.000
31.96000 768.000
32.00000 595.000
32.04000 426.000
32.08000 271.000
32.12000 228.000
32.16000 168.000
32.20000 127.000
32.24000 136.000
32.28000 96.000
32.32000 101.000
32.36000 100.000
32.40000 121.000
32.44000 98.000
32.48000 96.000
32.52000 90.000
32.56000 90.000
32.60000 76.000
32.64000 103.000
32.68000 95.000
32.72000 111.000
32.76000 105.000
32.80000 96.000
32.84000 98.000
32.88000 102.000
32.92000 105.000
32.96000 113.000
33.00000 98.000
33.04000 129.000
33.08000 102.000
33.12000 106.000
33.16000 110.000
33.20000 97.000
33.24000 94.000
33.28000 93.000
33.32000 93.000
33.36000 98.000
33.40000 104.000
33.44000 106.000
33.48000 100.000
33.52000 93.000
33.56000 89.000
33.60000 118.000
33.64000 95.000
33.68000 104.000
33.72000 131.000
33.76000 118.000
33.80000 128.000
33.84000 140.000
33.88000 128.000
33.92000 119.000
33.96000 110.000
34.00000 103.000
34.04000 102.000
34.08000 103.000
34.12000 88.000
34.16000 81.000
34.20000 89.000
34.24000 95.000
34.28000 70.000
34.32000 107.000
34.36000 107.000
34.40000 109.000
34.44000 126.000
34.48000 98.000
34.52000 107.000
34.56000 127.000
34.60000 118.000
34.64000 141.000
34.68000 114.000
34.72000 97.000
34.76000 100.000
34.80000 105.000
34.84000 84.000
34.88000 86.000
34.92000 83.000
34.96000 85.000
35.00000 78.000
35.04000 86.000
35.08000 75.000
35.12000 81.000
35.16000 84.000
35.20000 72.000
35.24000 63.000
35.28000 86.000
35.32000 89.000
35.36000 76.000
35.40000 78.000
35.44000 96.000
35.48000 88.000
35.52000 82.000
35.56000 85.000
35.60000 106.000
35.64000 103.000
35.68000 107.000
35.72000 105.000
35.76000 99.000
35.80000 102.000
35.84000 101.000
35.88000 113.000
35.92000 108.000
35.96000 114.000
36.00000 129.000
36.04000 130.000
36.08000 150.000
36.12000 139.000
36.16000 165.000
36.20000 134.000
36.24000 140.000
36.28000 125.000
36.32000 90.000
36.36000 89.000
36.40000 68.000
36.44000 90.000
36.48000 86.000
36.52000 108.000
36.56000 108.000
36.60000 113.000
36.64000 98.000
36.68000 90.000
36.72000 89.000
36.76000 99.000
36.80000 107.000
36.84000 120.000
36.88000 134.000
36.92000 117.000
36.96000 131.000
37.00000 115.000
37.04000 127.000
37.08000 109.000
37.12000 105.000
37.16000 95.000
37.20000 105.000
37.24000 105.000
37.28000 103.000
37.32000 86.000
37.36000 95.000
37.40000 98.000
37.44000 109.000
37.48000 107.000
37.52000 115.000
37.56000 128.000
37.60000 119.000
37.64000 104.000
37.68000 95.000
37.72000 108.000
37.76000 96.000
37.80000 83.000
37.84000 115.000
37.88000 119.000
37.92000 126.000
37.96000 120.000
38.00000 136.000
38.04000 181.000
38.08000 150.000
38.12000 154.000
38.16000 148.000
38.20000 134.000
38.24000 122.000
38.28000 124.000
38.32000 117.000
38.36000 102.000
38.40000 88.000
38.44000 99.000
38.48000 87.000
38.52000 82.000
38.56000 96.000
38.60000 97.000
38.64000 97.000
38.68000 85.000
38.72000 103.000
38.76000 97.000
38.80000 89.000
38.84000 87.000
38.88000 70.000
38.92000 75.000
38.96000 77.000
39.00000 98.000
39.04000 90.000
39.08000 109.000
39.12000 120.000
39.16000 151.000
39.20000 194.000
39.24000 220.000
39.28000 290.000
39.32000 321.000
39.36000 328.000
39.40000 254.000
39.44000 246.000
39.48000 201.000
39.52000 159.000
39.56000 134.000
39.60000 118.000
39.64000 98.000
39.68000 95.000
39.72000 96.000
39.76000 100.000
39.80000 94.000
39.84000 86.000
39.88000 93.000
39.92000 84.000
39.96000 89.000
40.00000 99.000
40.04000 84.000
40.08000 101.000
40.12000 106.000
40.16000 92.000
40.20000 81.000
40.24000 90.000
40.28000 102.000
40.32000 101.000
40.36000 106.000
40.40000 86.000
40.44000 74.000
40.48000 98.000
40.52000 98.000
40.56000 78.000
40.60000 98.000
40.64000 98.000
40.68000 97.000
40.72000 76.000
40.76000 100.000
40.80000 100.000
40.84000 102.000
40.88000 84.000
40.92000 76.000
40.96000 86.000
41.00000 86.000
41.04000 94.000
41.08000 91.000
41.12000 80.000
41.16000 115.000
41.20000 100.000
41.24000 96.000
41.28000 109.000
41.32000 83.000
41.36000 106.000
41.40000 99.000
41.44000 109.000
41.48000 83.000
41.52000 108.000
41.56000 112.000
41.60000 95.000
41.64000 139.000
41.68000 168.000
41.72000 152.000
41.76000 216.000
41.80000 295.000
41.84000 403.000
41.88000 577.000
41.92000 826.000
41.96000 1148.000
42.00000 1259.000
42.04000 1294.000
42.08000 1025.000
42.12000 850.000
42.16000 589.000
42.20000 358.000
42.24000 206.000
42.28000 191.000
42.32000 138.000
42.36000 155.000
42.40000 139.000
42.44000 116.000
42.48000 133.000
42.52000 118.000
42.56000 125.000
42.60000 116.000
42.64000 111.000
42.68000 129.000
42.72000 105.000
42.76000 150.000
42.80000 102.000
42.84000 130.000
42.88000 114.000
42.92000 88.000
42.96000 96.000
43.00000 95.000
43.04000 75.000
43.08000 83.000
43.12000 80.000
43.16000 96.000
43.20000 84.000
43.24000 83.000
43.28000 89.000
43.32000 94.000
43.36000 89.000
43.40000 70.000
43.44000 91.000
43.48000 95.000
43.52000 80.000
43.56000 93.000
43.60000 116.000
43.64000 105.000
43.68000 100.000
43.72000 120.000
43.76000 97.000
43.80000 91.000
43.84000 95.000
43.88000 117.000
43.92000 93.000
43.96000 85.000
44.00000 90.000
44.04000 92.000
44.08000 85.000
44.12000 92.000
44.16000 87.000
44.20000 90.000
44.24000 81.000
44.28000 92.000
44.32000 82.000
44.36000 85.000
44.40000 86.000
44.44000 96.000
44.48000 98.000
44.52000 96.000
44.56000 91.000
44.60000 88.000
44.64000 94.000
44.68000 94.000
44.72000 96.000
44.76000 99.000
44.80000 90.000
44.84000 98.000
44.88000 99.000
44.92000 86.000
44.96000 95.000
45.00000 99.000
45.04000 81.000
45.08000 71.000
45.12000 103.000
45.16000 108.000
45.20000 75.000
45.24000 106.000
45.28000 88.000
45.32000 90.000
45.36000 101.000
45.40000 124.000
45.44000 143.000
45.48000 126.000
45.52000 159.000
45.56000 176.000
45.60000 255.000
45.64000 284.000
45.68000 376.000
45.72000 450.000
45.76000 471.000
45.80000 406.000
45.84000 389.000
45.88000 356.000
45.92000 259.000
45.96000 220.000
46.00000 180.000
46.04000 151.000
46.08000 124.000
46.12000 114.000
46.16000 113.000
46.20000 95.000
46.24000 89.000
46.28000 94.000
46.32000 88.000
46.36000 85.000
46.40000 94.000
46.44000 87.000
46.48000 84.000
46.52000 101.000
46.56000 112.000
46.60000 102.000
46.64000 101.000
46.68000 120.000
46.72000 131.000
46.76000 78.000
46.80000 109.000
46.84000 90.000
46.88000 80.000
46.92000 101.000
46.96000 98.000
47.00000 100.000
47.04000 116.000
47.08000 111.000
47.12000 171.000
47.16000 190.000
47.20000 248.000
47.24000 244.000
47.28000 217.000
47.32000 207.000
47.36000 193.000
47.40000 177.000
47.44000 124.000
47.48000 112.000
47.52000 97.000
47.56000 113.000
47.60000 107.000
47.64000 90.000
47.68000 93.000
47.72000 94.000
47.76000 105.000
47.80000 115.000
47.84000 107.000
47.88000 110.000
47.92000 104.000
47.96000 104.000
48.00000 113.000
48.04000 130.000
48.08000 124.000
48.12000 125.000
48.16000 140.000
48.20000 133.000
48.24000 143.000
48.28000 144.000
48.32000 127.000
48.36000 124.000
48.40000 141.000
48.44000 137.000
48.48000 128.000
48.52000 110.000
48.56000 99.000
48.60000 101.000
48.64000 118.000
48.68000 111.000
48.72000 109.000
48.76000 131.000
48.80000 103.000
48.84000 111.000
48.88000 107.000
48.92000 91.000
48.96000 96.000
49.00000 81.000
49.04000 107.000
49.08000 76.000
49.12000 79.000
49.16000 83.000
49.20000 98.000
49.24000 93.000
49.28000 82.000
49.32000 98.000
49.36000 94.000
49.40000 87.000
49.44000 85.000
49.48000 92.000
49.52000 73.000
49.56000 74.000
49.60000 101.000
49.64000 98.000
49.68000 95.000
49.72000 129.000
49.76000 91.000
49.80000 113.000
49.84000 101.000
49.88000 96.000
49.92000 86.000
49.96000 88.000
50.00000 86.000
50.04000 117.000
50.08000 109.000
50.12000 124.000
50.16000 149.000
50.20000 134.000
50.24000 131.000
50.28000 139.000
50.32000 143.000
50.36000 122.000
50.40000 109.000
50.44000 109.000
50.48000 108.000
50.52000 97.000
50.56000 86.000
50.60000 102.000
50.64000 76.000
50.68000 80.000
50.72000 94.000
50.76000 88.000
50.80000 89.000
50.84000 86.000
50.88000 85.000
50.92000 109.000
50.96000 83.000
51.00000 107.000
51.04000 86.000
51.08000 98.000
51.12000 88.000
51.16000 101.000
51.20000 93.000
51.24000 107.000
51.28000 109.000
51.32000 100.000
51.36000 92.000
51.40000 120.000
51.44000 131.000
51.48000 154.000
51.52000 148.000
51.56000 153.000
51.60000 138.000
51.64000 129.000
51.68000 140.000
51.72000 170.000
51.76000 174.000
51.80000 201.000
51.84000 251.000
51.88000 310.000
51.92000 476.000
51.96000 723.000
52.00000 1159.000
52.04000 1611.000
52.08000 1798.000
52.12000 1570.000
52.16000 1278.000
52.20000 1180.000
52.24000 885.000
52.28000 634.000
52.32000 396.000
52.36000 285.000
52.40000 226.000
52.44000 191.000
52.48000 125.000
52.52000 122.000
52.56000 125.000
52.60000 112.000
52.64000 113.000
52.68000 101.000
52.72000 95.000
52.76000 90.000
52.80000 105.000
52.84000 83.000
52.88000 96.000
52.92000 85.000
52.96000 102.000
53.00000 93.000
53.04000 103.000
53.08000 70.000
53.12000 88.000
53.16000 69.000
53.20000 81.000
53.24000 82.000
53.28000 97.000
53.32000 75.000
53.36000 81.000
53.40000 77.000
53.44000 84.000
53.48000 91.000
53.52000 80.000
53.56000 81.000
53.60000 92.000
53.64000 85.000
53.68000 97.000
53.72000 74.000
53.76000 92.000
53.80000 82.000
53.84000 91.000
53.88000 92.000
53.92000 106.000
53.96000 115.000
54.00000 115.000
54.04000 124.000
54.08000 144.000
54.12000 168.000
54.16000 192.000
54.20000 214.000
54.24000 225.000
54.28000 205.000
54.32000 225.000
54.36000 205.000
54.40000 179.000
54.44000 158.000
54.48000 137.000
54.52000 121.000
54.56000 109.000
54.60000 109.000
54.64000 112.000
54.68000 118.000
54.72000 100.000
54.76000 104.000
54.80000 91.000
54.84000 94.000
54.88000 97.000
54.92000 102.000
54.96000 85.000
55.00000 88.000
55.04000 99.000
55.08000 93.000
55.12000 90.000
55.16000 67.000
55.20000 79.000
55.24000 86.000
55.28000 76.000
55.32000 74.000
55.36000 68.000
55.40000 86.000
55.44000 78.000
55.48000 80.000
55.52000 92.000
55.56000 67.000
55.60000 101.000
55.64000 89.000
55.68000 68.000
55.72000 83.000
55.76000 77.000
55.80000 78.000
55.84000 72.000
55.88000 103.000
55.92000 88.000
55.96000 69.000
56.00000 71.000
56.04000 85.000
56.08000 85.000
56.12000 80.000
56.16000 91.000
56.20000 87.000
56.24000 74.000
56.28000 83.000
56.32000 75.000
56.36000 78.000
56.40000 78.000
56.44000 79.000
56.48000 95.000
56.52000 84.000
56.56000 99.000
56.60000 98.000
56.64000 113.000
56.68000 114.000
56.72000 115.000
56.76000 128.000
56.80000 147.000
56.84000 150.000
56.88000 178.000
56.92000 172.000
56.96000 143.000
57.00000 139.000
57.04000 134.000
57.08000 104.000
57.12000 95.000
57.16000 83.000
57.20000 87.000
57.24000 82.000
57.28000 86.000
57.32000 76.000
57.36000 84.000
57.40000 87.000
57.44000 103.000
57.48000 95.000
57.52000 80.000
57.56000 88.000
57.60000 84.000
57.64000 90.000
57.68000 73.000
57.72000 78.000
57.76000 82.000
57.80000 90.000
57.84000 111.000
57.88000 83.000
57.92000 89.000
57.96000 91.000
58.00000 72.000
58.04000 70.000
58.08000 83.000
58.12000 95.000
58.16000 82.000
58.20000 65.000
58.24000 90.000
58.28000 73.000
58.32000 76.000
58.36000 79.000
58.40000 84.000
58.44000 93.000
58.48000 81.000
58.52000 97.000
58.56000 68.000
58.60000 78.000
58.64000 69.000
58.68000 77.000
58.72000 68.000
58.76000 72.000
58.80000 66.000
58.84000 67.000
58.88000 79.000
58.92000 78.000
58.96000 90.000
59.00000 87.000
59.04000 85.000
59.08000 63.000
59.12000 77.000
59.16000 71.000
59.20000 76.000
59.24000 69.000
59.28000 72.000
59.32000 69.000
59.36000 72.000
59.40000 82.000
59.44000 78.000
59.48000 77.000
59.52000 92.000
59.56000 75.000
59.60000 74.000
59.64000 73.000
59.68000 63.000
59.72000 58.000
59.76000 86.000
59.80000 64.000
59.84000 65.000
59.88000 59.000
59.92000 79.000
59.96000 69.000