File: XRD/68.xy
5.00000 4793.000
5.08000 4625.000
5.16000 4633.000
5.24000 4628.000
5.32000 4490.000
5.40000 4434.000
5.48000 4364.000
5.56000 4231.000
5.64000 4186.000
5.72000 4146.000
5.80000 4033.000
5.88000 3870.000
5.96000 3970.000
6.04000 3841.000
6.12000 3786.000
6.20000 3750.000
6.28000 3749.000
6.36000 3637.000
6.44000 3640.000
6.52000 3811.000
6.60000 3504.000
6.68000 3441.000
6.76000 3396.000
6.84000 3393.000
6.92000 3285.000
7.00000 3360.000
7.08000 3215.000
7.16000 3205.000
7.24000 3072.000
7.32000 3102.000
7.40000 3065.000
7.48000 3132.000
7.56000 3096.000
7.64000 2971.000
7.72000 2994.000
7.80000 2888.000
7.88000 2809.000
7.96000 2842.000
8.04000 2754.000
8.12000 2718.000
8.20000 2791.000
8.28000 2780.000
8.36000 2671.000
8.44000 2711.000
8.52000 2571.000
8.60000 2621.000
8.68000 2653.000
8.76000 2537.000
8.84000 2722.000
8.92000 2580.000
9.00000 2546.000
9.08000 2404.000
9.16000 2461.000
9.24000 2453.000
9.32000 2460.000
9.40000 2381.000
9.48000 2401.000
9.56000 2341.000
9.64000 2334.000
9.72000 2411.000
9.80000 2297.000
9.88000 2332.000
9.96000 2178.000
10.04000 2233.000
10.12000 2222.000
10.20000 2168.000
10.28000 2157.000
10.36000 2165.000
10.44000 2131.000
10.52000 2202.000
10.60000 2193.000
10.68000 2204.000
10.76000 2090.000
10.84000 2126.000
10.92000 2234.000
11.00000 2057.000
11.08000 2048.000
11.16000 2066.000
11.24000 2020.000
11.32000 2055.000
11.40000 2024.000
11.48000 1987.000
11.56000 2050.000
11.64000 2055.000
11.72000 1995.000
11.80000 1996.000
11.88000 1973.000
11.96000 1976.000
12.04000 2010.000
12.12000 1982.000
12.20000 2039.000
12.28000 1979.000
12.36000 2089.000
12.44000 2179.000
12.52000 2191.000
12.60000 2081.000
12.68000 2153.000
12.76000 2083.000
12.84000 1958.000
12.92000 2003.000
13.00000 2047.000
13.08000 1960.000
13.16000 1892.000
13.24000 1878.000
13.32000 1881.000
13.40000 1986.000
13.48000 1981.000
13.56000 2080.000
13.64000 1927.000
13.72000 1928.000
13.80000 1932.000
13.88000 1900.000
13.96000 1971.000
14.04000 2004.000
14.12000 2025.000
14.20000 2028.000
14.28000 2005.000
14.36000 2024.000
14.44000 2024.000
14.52000 2053.000
14.60000 2095.000
14.68000 2061.000
14.76000 2080.000
14.84000 2088.000
14.92000 2112.000
15.00000 2182.000
15.08000 2239.000
15.16000 2261.000
15.24000 2406.000
15.32000 2578.000
15.40000 2294.000
15.48000 2677.000
15.56000 2463.000
15.64000 2387.000
15.72000 2271.000
15.80000 2181.000
15.88000 2256.000
15.96000 2323.000
16.04000 2190.000
16.12000 2355.000
16.20000 2262.000
16.28000 2268.000
16.36000 2329.000
16.44000 2327.000
16.52000 2317.000
16.60000 2181.000
16.68000 2340.000
16.76000 2290.000
16.84000 2407.000
16.92000 2328.000
17.00000 2305.000
17.08000 2398.000
17.16000 2476.000
17.24000 2492.000
17.32000 2605.000
17.40000 2482.000
17.48000 2497.000
17.56000 2535.000
17.64000 2703.000
17.72000 2864.000
17.80000 2936.000
17.88000 3035.000
17.96000 3012.000
18.04000 2907.000
18.12000 2833.000
18.20000 2657.000
18.28000 2672.000
18.36000 2637.000
18.44000 2766.000
18.52000 2683.000
18.60000 2728.000
18.68000 2742.000
18.76000 2715.000
18.84000 2752.000
18.92000 2750.000
19.00000 2855.000
19.08000 2732.000
19.16000 2882.000
19.24000 2821.000
19.32000 2813.000
19.40000 2859.000
19.48000 3008.000
19.56000 2861.000
19.64000 2902.000
19.72000 2964.000
19.80000 2992.000
19.88000 3056.000
19.96000 2981.000
20.04000 3030.000
20.12000 3063.000
20.20000 3095.000
20.28000 2998.000
20.36000 3190.000
20.44000 3164.000
20.52000 3106.000
20.60000 3111.000
20.68000 3274.000
20.76000 3353.000
20.84000 3292.000
20.92000 3349.000
21.00000 3248.000
21.08000 3234.000
21.16000 3333.000
21.24000 3437.000
21.32000 3375.000
21.40000 3482.000
21.48000 3301.000
21.56000 3594.000
21.64000 3542.000
21.72000 3762.000
21.80000 3728.000
21.88000 3980.000
21.96000 3989.000
22.04000 3910.000
22.12000 3880.000
22.20000 3790.000
22.28000 3655.000
22.36000 3637.000
22.44000 3547.000
22.52000 3431.000
22.60000 3527.000
22.68000 3531.000
22.76000 3536.000
22.84000 3614.000
22.92000 3449.000
23.00000 3591.000
23.08000 3565.000
23.16000 3561.000
23.24000 3581.000
23.32000 3720.000
23.40000 3648.000
23.48000 3630.000
23.56000 3561.000
23.64000 3601.000
23.72000 3635.000
23.80000 3698.000
23.88000 3548.000
23.96000 3609.000
24.04000 3640.000
24.12000 3742.000
24.20000 3715.000
24.28000 3494.000
24.36000 3509.000
24.44000 3721.000
24.52000 3504.000
24.60000 3577.000
24.68000 3552.000
24.76000 3478.000
24.84000 3606.000
24.92000 3516.000
25.00000 3594.000
25.08000 3437.000
25.16000 3565.000
25.24000 3588.000
25.32000 3626.000
25.40000 3644.000
25.48000 3642.000
25.56000 3641.000
25.64000 3696.000
25.72000 3585.000
25.80000 3701.000
25.88000 3653.000
25.96000 3569.000
26.04000 3551.000
26.12000 3527.000
26.20000 3530.000
26.28000 3660.000
26.36000 3707.000
26.44000 3837.000
26.52000 3998.000
26.60000 4331.000
26.68000 4749.000
26.76000 5408.000
26.84000 6189.000
26.92000 6517.000
27.00000 6790.000
27.08000 6744.000
27.16000 6256.000
27.24000 5620.000
27.32000 5166.000
27.40000 5118.000
27.48000 4610.000
27.56000 3906.000
27.64000 3435.000
27.72000 3344.000
27.80000 3179.000
27.88000 3139.000
27.96000 3225.000
28.04000 3169.000
28.12000 3047.000
28.20000 3206.000
28.28000 3181.000
28.36000 3175.000
28.44000 3154.000
28.52000 3095.000
28.60000 3096.000
28.68000 3246.000
28.76000 3158.000
28.84000 3207.000
28.92000 3076.000
29.00000 3150.000
29.08000 3179.000
29.16000 3064.000
29.24000 3056.000
29.32000 3103.000
29.40000 3282.000
29.48000 3407.000
29.56000 3992.000
29.64000 5676.000
29.72000 7866.000
29.80000 10042.000
29.88000 10148.000
29.96000 8566.000
30.04000 6025.000
30.12000 3995.000
30.20000 3254.000
30.28000 2981.000
30.36000 2804.000
30.44000 3074.000
30.52000 2971.000
30.60000 2893.000
30.68000 3076.000
30.76000 3100.000
30.84000 3146.000
30.92000 3270.000
31.00000 3526.000
31.08000 3714.000
31.16000 4038.000
31.24000 4212.000
31.32000 4275.000
31.40000 4004.000
31.48000 3606.000
31.56000 3252.000
31.64000 2959.000
31.72000 2795.000
31.80000 2700.000
31.88000 2629.000
31.96000 2684.000
32.04000 2571.000
32.12000 2564.000
32.20000 2617.000
32.28000 2546.000
32.36000 2493.000
32.44000 2463.000
32.52000 2429.000
32.60000 2314.000
32.68000 2438.000
32.76000 2267.000
32.84000 2405.000
32.92000 2333.000
33.00000 2302.000
33.08000 2312.000
33.16000 2284.000
33.24000 2337.000
33.32000 2321.000
33.40000 2244.000
33.48000 2262.000
33.56000 2200.000
33.64000 2214.000
33.72000 2241.000
33.80000 2220.000
33.88000 2181.000
33.96000 2127.000
34.04000 2165.000
34.12000 2177.000
34.20000 2129.000
34.28000 2087.000
34.36000 2065.000
34.44000 2109.000
34.52000 2005.000
34.60000 1952.000
34.68000 2012.000
34.76000 2013.000
34.84000 1994.000
34.92000 2047.000
35.00000 1916.000
35.08000 1931.000
35.16000 1918.000
35.24000 1958.000
35.32000 1883.000
35.40000 1869.000
35.48000 1874.000
35.56000 1776.000
35.64000 1820.000
35.72000 1859.000
35.80000 1801.000
35.88000 1837.000
35.96000 1738.000
36.04000 1678.000
36.12000 1757.000
36.20000 1655.000
36.28000 1681.000
36.36000 1747.000
36.44000 1704.000
36.52000 1742.000
36.60000 1757.000
36.68000 1553.000
36.76000 1666.000
36.84000 1627.000
36.92000 1636.000
37.00000 1620.000
37.08000 1516.000
37.16000 1648.000
37.24000 1619.000
37.32000 1604.000
37.40000 1524.000
37.48000 1627.000
37.56000 1573.000
37.64000 1554.000
37.72000 1544.000
37.80000 1548.000
37.88000 1514.000
37.96000 1541.000
38.04000 1536.000
38.12000 1439.000
38.20000 1470.000
38.28000 1639.000
38.36000 1563.000
38.44000 1585.000
38.52000 1643.000
38.60000 1659.000
38.68000 1604.000
38.76000 1622.000
38.84000 1544.000
38.92000 1496.000
39.00000 1405.000
39.08000 1445.000
39.16000 1426.000
39.24000 1497.000
39.32000 1344.000
39.40000 1500.000
39.48000 1436.000
39.56000 1425.000
39.64000 1456.000
39.72000 1434.000
39.80000 1353.000
39.88000 1382.000
39.96000 1393.000
40.04000 1404.000
40.12000 1448.000
40.20000 1421.000
40.28000 1461.000
40.36000 1407.000
40.44000 1367.000
40.52000 1385.000
40.60000 1433.000
40.68000 1478.000
40.76000 1474.000
40.84000 1424.000
40.92000 1423.000
41.00000 1339.000
41.08000 1498.000
41.16000 1385.000
41.24000 1371.000
41.32000 1412.000
41.40000 1452.000
41.48000 1383.000
41.56000 1375.000
41.64000 1473.000
41.72000 1375.000
41.80000 1450.000
41.88000 1443.000
41.96000 1446.000
42.04000 1402.000
42.12000 1412.000
42.20000 1423.000
42.28000 1495.000
42.36000 1450.000
42.44000 1511.000
42.52000 1485.000
42.60000 1597.000
42.68000 1588.000
42.76000 1540.000
42.84000 1550.000
42.92000 1512.000
43.00000 1443.000
43.08000 1457.000
43.16000 1356.000
43.24000 1374.000
43.32000 1431.000
43.40000 1375.000
43.48000 1380.000
43.56000 1362.000
43.64000 1386.000
43.72000 1422.000
43.80000 1416.000
43.88000 1435.000
43.96000 1528.000
44.04000 1467.000
44.12000 1550.000
44.20000 1477.000
44.28000 1543.000
44.36000 1525.000
44.44000 1540.000
44.52000 1520.000
44.60000 1571.000
44.68000 1704.000
44.76000 1811.000
44.84000 1827.000
44.92000 1795.000
45.00000 1866.000
45.08000 1829.000
45.16000 1655.000
45.24000 1587.000
45.32000 1534.000
45.40000 1478.000
45.48000 1433.000
45.56000 1366.000
45.64000 1362.000
45.72000 1297.000
45.80000 1354.000
45.88000 1341.000
45.96000 1327.000
46.04000 1322.000
46.12000 1282.000
46.20000 1290.000
46.28000 1306.000
46.36000 1294.000
46.44000 1332.000
46.52000 1263.000
46.60000 1402.000
46.68000 1249.000
46.76000 1310.000
46.84000 1235.000
46.92000 1299.000
47.00000 1313.000
47.08000 1248.000
47.16000 1271.000
47.24000 1334.000
47.32000 1259.000
47.40000 1245.000
47.48000 1281.000
47.56000 1266.000
47.64000 1229.000
47.72000 1338.000
47.80000 1280.000
47.88000 1289.000
47.96000 1241.000
48.04000 1259.000
48.12000 1302.000
48.20000 1173.000
48.28000 1268.000
48.36000 1232.000
48.44000 1210.000
48.52000 1241.000
48.60000 1230.000
48.68000 1202.000
48.76000 1183.000
48.84000 1240.000
48.92000 1250.000
49.00000 1191.000
49.08000 1214.000
49.16000 1238.000
49.24000 1240.000
49.32000 1265.000
49.40000 1214.000
49.48000 1184.000
49.56000 1198.000
49.64000 1180.000
49.72000 1154.000
49.80000 1185.000
49.88000 1222.000
49.96000 1253.000
50.04000 1228.000
50.12000 1133.000
50.20000 1201.000
50.28000 1175.000
50.36000 1211.000
50.44000 1212.000
50.52000 1215.000
50.60000 1231.000
50.68000 1234.000
50.76000 1161.000
50.84000 1175.000
50.92000 1190.000
51.00000 1269.000
51.08000 1188.000
51.16000 1178.000
51.24000 1154.000
51.32000 1171.000
51.40000 1210.000
51.48000 1148.000
51.56000 1207.000
51.64000 1176.000
51.72000 1169.000
51.80000 1187.000
51.88000 1214.000
51.96000 1178.000
52.04000 1129.000
52.12000 1189.000
52.20000 1175.000
52.28000 1183.000
52.36000 1190.000
52.44000 1158.000
52.52000 1158.000
52.60000 1178.000
52.68000 1169.000
52.76000 1257.000
52.84000 1246.000
52.92000 1288.000
53.00000 1312.000
53.08000 1303.000
53.16000 1297.000
53.24000 1328.000
53.32000 1261.000
53.40000 1193.000
53.48000 1262.000
53.56000 1205.000
53.64000 1243.000
53.72000 1253.000
53.80000 1177.000
53.88000 1173.000
53.96000 1161.000
54.04000 1198.000
54.12000 1168.000
54.20000 1183.000
54.28000 1203.000
54.36000 1174.000
54.44000 1154.000
54.52000 1168.000
54.60000 1193.000
54.68000 1217.000
54.76000 1178.000
54.84000 1229.000
54.92000 1217.000
55.00000 1187.000
55.08000 1256.000
55.16000 1237.000
55.24000 1295.000
55.32000 1235.000
55.40000 1346.000
55.48000 1290.000
55.56000 1336.000
55.64000 1343.000
55.72000 1384.000
55.80000 1376.000
55.88000 1437.000
55.96000 1467.000
56.04000 1438.000
56.12000 1327.000
56.20000 1386.000
56.28000 1330.000
56.36000 1228.000
56.44000 1264.000
56.52000 1173.000
56.60000 1156.000
56.68000 1140.000
56.76000 1166.000
56.84000 1201.000
56.92000 1171.000
57.00000 1194.000
57.08000 1172.000
57.16000 1237.000
57.24000 1145.000
57.32000 1200.000
57.40000 1189.000
57.48000 1120.000
57.56000 1183.000
57.64000 1200.000
57.72000 1162.000
57.80000 1124.000
57.88000 1198.000
57.96000 1212.000
58.04000 1098.000
58.12000 1092.000
58.20000 1140.000
58.28000 1175.000
58.36000 1162.000
58.44000 1157.000
58.52000 1098.000
58.60000 1140.000
58.68000 1108.000
58.76000 1143.000
58.84000 1206.000
58.92000 1162.000
59.00000 1201.000
59.08000 1119.000
59.16000 1137.000
59.24000 1171.000
59.32000 1090.000
59.40000 1204.000
59.48000 1107.000
59.56000 1158.000
59.64000 1186.000
59.72000 1079.000
59.80000 1148.000
59.88000 1139.000
59.96000 1085.000
60.04000 1113.000
60.12000 1092.000
60.20000 1216.000
60.28000 1161.000
60.36000 1231.000
60.44000 1197.000
60.52000 1152.000
60.60000 1205.000
60.68000 1099.000
60.76000 1222.000
60.84000 1184.000
60.92000 1184.000
61.00000 1174.000
61.08000 1167.000
61.16000 1093.000
61.24000 1174.000
61.32000 1168.000
61.40000 1129.000
61.48000 1013.000
61.56000 1129.000
61.64000 1173.000
61.72000 1179.000
61.80000 1200.000
61.88000 1368.000
61.96000 1512.000
62.04000 1575.000
62.12000 1567.000
62.20000 1437.000
62.28000 1405.000
62.36000 1250.000
62.44000 1181.000
62.52000 1173.000
62.60000 1092.000
62.68000 1104.000
62.76000 1121.000
62.84000 1129.000
62.92000 1116.000
63.00000 1113.000
63.08000 1104.000
63.16000 1069.000
63.24000 1091.000
63.32000 1148.000
63.40000 1152.000
63.48000 1133.000
63.56000 1194.000
63.64000 1089.000
63.72000 1120.000
63.80000 1133.000
63.88000 1144.000
63.96000 1082.000
64.04000 1116.000
64.12000 1050.000
64.20000 1100.000
64.28000 1064.000
64.36000 1033.000
64.44000 1112.000
64.52000 1111.000
64.60000 1154.000
64.68000 1128.000
64.76000 1119.000
64.84000 1034.000
64.92000 1072.000
65.00000 1131.000
65.08000 1122.000
65.16000 1066.000
65.24000 1099.000
65.32000 1058.000
65.40000 1086.000
65.48000 1104.000
65.56000 1102.000
65.64000 1132.000
65.72000 1090.000
65.80000 1053.000
65.88000 1066.000
65.96000 1030.000
66.04000 1066.000
66.12000 1064.000
66.20000 990.000
66.28000 1036.000
66.36000 1078.000
66.44000 1067.000
66.52000 1029.000
66.60000 1085.000
66.68000 1077.000
66.76000 972.000
66.84000 1059.000
66.92000 1025.000
67.00000 993.000
67.08000 1086.000
67.16000 1005.000
67.24000 985.000
67.32000 1052.000
67.40000 1012.000
67.48000 1056.000
67.56000 1030.000
67.64000 1006.000
67.72000 1013.000
67.80000 1000.000
67.88000 1021.000
67.96000 1024.000
68.04000 935.000
68.12000 1021.000
68.20000 996.000
68.28000 1001.000
68.36000 999.000
68.44000 1009.000
68.52000 971.000
68.60000 919.000
68.68000 1023.000
68.76000 967.000
68.84000 991.000
68.92000 984.000
69.00000 1012.000
69.08000 998.000
69.16000 987.000
69.24000 1029.000
69.32000 955.000
69.40000 992.000
69.48000 963.000
69.56000 914.000
69.64000 956.000
69.72000 966.000
69.80000 982.000
69.88000 975.000
69.92000 1024.000