File: XRD/69.xy
5.00000 4741.000
5.08000 4767.000
5.16000 4476.000
5.24000 4549.000
5.32000 4418.000
5.40000 4448.000
5.48000 4262.000
5.56000 4345.000
5.64000 4206.000
5.72000 4078.000
5.80000 4069.000
5.88000 3920.000
5.96000 3747.000
6.04000 3847.000
6.12000 3773.000
6.20000 3662.000
6.28000 3769.000
6.36000 3600.000
6.44000 3702.000
6.52000 3511.000
6.60000 3454.000
6.68000 3449.000
6.76000 3378.000
6.84000 3373.000
6.92000 3226.000
7.00000 3264.000
7.08000 3275.000
7.16000 3138.000
7.24000 3098.000
7.32000 3075.000
7.40000 3107.000
7.48000 3156.000
7.56000 2993.000
7.64000 2958.000
7.72000 2930.000
7.80000 2830.000
7.88000 2844.000
7.96000 2866.000
8.04000 2759.000
8.12000 2778.000
8.20000 2809.000
8.28000 2699.000
8.36000 2814.000
8.44000 2773.000
8.52000 2875.000
8.60000 2844.000
8.68000 2863.000
8.76000 2850.000
8.84000 2670.000
8.92000 2580.000
9.00000 2598.000
9.08000 2503.000
9.16000 2371.000
9.24000 2468.000
9.32000 2397.000
9.40000 2393.000
9.48000 2368.000
9.56000 2355.000
9.64000 2220.000
9.72000 2336.000
9.80000 2297.000
9.88000 2275.000
9.96000 2258.000
10.04000 2205.000
10.12000 2182.000
10.20000 2271.000
10.28000 2164.000
10.36000 2222.000
10.44000 2140.000
10.52000 2163.000
10.60000 2127.000
10.68000 2117.000
10.76000 2077.000
10.84000 2046.000
10.92000 2031.000
11.00000 2056.000
11.08000 1995.000
11.16000 2118.000
11.24000 2091.000
11.32000 2195.000
11.40000 2194.000
11.48000 2189.000
11.56000 2343.000
11.64000 2623.000
11.72000 2809.000
11.80000 2889.000
11.88000 2920.000
11.96000 2738.000
12.04000 2370.000
12.12000 2066.000
12.20000 1964.000
12.28000 1920.000
12.36000 1993.000
12.44000 1962.000
12.52000 2026.000
12.60000 2016.000
12.68000 2291.000
12.76000 2577.000
12.84000 3026.000
12.92000 3254.000
13.00000 3470.000
13.08000 3335.000
13.16000 3170.000
13.24000 2935.000
13.32000 2764.000
13.40000 2469.000
13.48000 2230.000
13.56000 1938.000
13.64000 1863.000
13.72000 1878.000
13.80000 1849.000
13.88000 1891.000
13.96000 1881.000
14.04000 1911.000
14.12000 1920.000
14.20000 2020.000
14.28000 1998.000
14.36000 1981.000
14.44000 1989.000
14.52000 1910.000
14.60000 2034.000
14.68000 1925.000
14.76000 1946.000
14.84000 1996.000
14.92000 1970.000
15.00000 1966.000
15.08000 1978.000
15.16000 1987.000
15.24000 1969.000
15.32000 2014.000
15.40000 2040.000
15.48000 2112.000
15.56000 2064.000
15.64000 2095.000
15.72000 2109.000
15.80000 2037.000
15.88000 2169.000
15.96000 1995.000
16.04000 2068.000
16.12000 2061.000
16.20000 2055.000
16.28000 2056.000
16.36000 2127.000
16.44000 2312.000
16.52000 2638.000
16.60000 3125.000
16.68000 3509.000
16.76000 3666.000
16.84000 3407.000
16.92000 2806.000
17.00000 2378.000
17.08000 2171.000
17.16000 2210.000
17.24000 2163.000
17.32000 2191.000
17.40000 2296.000
17.48000 2244.000
17.56000 2461.000
17.64000 2409.000
17.72000 2550.000
17.80000 2427.000
17.88000 2432.000
17.96000 2324.000
18.04000 2239.000
18.12000 2303.000
18.20000 2260.000
18.28000 2259.000
18.36000 2277.000
18.44000 2275.000
18.52000 2370.000
18.60000 2428.000
18.68000 2429.000
18.76000 2415.000
18.84000 2460.000
18.92000 2661.000
19.00000 2718.000
19.08000 2694.000
19.16000 2737.000
19.24000 2763.000
19.32000 2696.000
19.40000 2627.000
19.48000 2575.000
19.56000 2572.000
19.64000 2533.000
19.72000 2631.000
19.80000 2570.000
19.88000 2603.000
19.96000 2556.000
20.04000 2650.000
20.12000 2706.000
20.20000 2671.000
20.28000 2679.000
20.36000 2639.000
20.44000 2750.000
20.52000 2736.000
20.60000 2887.000
20.68000 2947.000
20.76000 2999.000
20.84000 3298.000
20.92000 3316.000
21.00000 3400.000
21.08000 3538.000
21.16000 3587.000
21.24000 3599.000
21.32000 3567.000
21.40000 3281.000
21.48000 3091.000
21.56000 2915.000
21.64000 2922.000
21.72000 2909.000
21.80000 2921.000
21.88000 2948.000
21.96000 2967.000
22.04000 2948.000
22.12000 2960.000
22.20000 3063.000
22.28000 3079.000
22.36000 3058.000
22.44000 3123.000
22.52000 3262.000
22.60000 3300.000
22.68000 3412.000
22.76000 3481.000
22.84000 3643.000
22.92000 3742.000
23.00000 3859.000
23.08000 4156.000
23.16000 4471.000
23.24000 5030.000
23.32000 5551.000
23.40000 6225.000
23.48000 6602.000
23.56000 6662.000
23.64000 5983.000
23.72000 5019.000
23.80000 3934.000
23.88000 3559.000
23.96000 3496.000
24.04000 3299.000
24.12000 3313.000
24.20000 3127.000
24.28000 3106.000
24.36000 3077.000
24.44000 3065.000
24.52000 3155.000
24.60000 3035.000
24.68000 3143.000
24.76000 3040.000
24.84000 3044.000
24.92000 3042.000
25.00000 3250.000
25.08000 3142.000
25.16000 3216.000
25.24000 3157.000
25.32000 2982.000
25.40000 3162.000
25.48000 3063.000
25.56000 3083.000
25.64000 3103.000
25.72000 2970.000
25.80000 3115.000
25.88000 3090.000
25.96000 3080.000
26.04000 3056.000
26.12000 3072.000
26.20000 3011.000
26.28000 2954.000
26.36000 3028.000
26.44000 3081.000
26.52000 3144.000
26.60000 3062.000
26.68000 3110.000
26.76000 3248.000
26.84000 3184.000
26.92000 3135.000
27.00000 3063.000
27.08000 3005.000
27.16000 2987.000
27.24000 2989.000
27.32000 2961.000
27.40000 2867.000
27.48000 2861.000
27.56000 2784.000
27.64000 2866.000
27.72000 2838.000
27.80000 2774.000
27.88000 2863.000
27.96000 2867.000
28.04000 2890.000
28.12000 3046.000
28.20000 3242.000
28.28000 3442.000
28.36000 3421.000
28.44000 3214.000
28.52000 3101.000
28.60000 2867.000
28.68000 3100.000
28.76000 3295.000
28.84000 3687.000
28.92000 3917.000
29.00000 3946.000
29.08000 3905.000
29.16000 3699.000
29.24000 3524.000
29.32000 3102.000
29.40000 2753.000
29.48000 2670.000
29.56000 2658.000
29.64000 2722.000
29.72000 2685.000
29.80000 2812.000
29.88000 2917.000
29.96000 3075.000
30.04000 3009.000
30.12000 2783.000
30.20000 2700.000
30.28000 2501.000
30.36000 2499.000
30.44000 2486.000
30.52000 2452.000
30.60000 2527.000
30.68000 2451.000
30.76000 2423.000
30.84000 2437.000
30.92000 2446.000
31.00000 2404.000
31.08000 2488.000
31.16000 2380.000
31.24000 2470.000
31.32000 2348.000
31.40000 2306.000
31.48000 2415.000
31.56000 2338.000
31.64000 2367.000
31.72000 2359.000
31.80000 2413.000
31.88000 2313.000
31.96000 2310.000
32.04000 2348.000
32.12000 2321.000
32.20000 2273.000
32.28000 2191.000
32.36000 2160.000
32.44000 2212.000
32.52000 2206.000
32.60000 2135.000
32.68000 2120.000
32.76000 2223.000
32.84000 2148.000
32.92000 2032.000
33.00000 2220.000
33.08000 2134.000
33.16000 2092.000
33.24000 2336.000
33.32000 2168.000
33.40000 2211.000
33.48000 2296.000
33.56000 2265.000
33.64000 2180.000
33.72000 2289.000
33.80000 2219.000
33.88000 2310.000
33.96000 2316.000
34.04000 2213.000
34.12000 2159.000
34.20000 1977.000
34.28000 2021.000
34.36000 1901.000
34.44000 1867.000
34.52000 1942.000
34.60000 1908.000
34.68000 1849.000
34.76000 1782.000
34.84000 1822.000
34.92000 1859.000
35.00000 1765.000
35.08000 1817.000
35.16000 1840.000
35.24000 1742.000
35.32000 1704.000
35.40000 1718.000
35.48000 1802.000
35.56000 1733.000
35.64000 1734.000
35.72000 1730.000
35.80000 1672.000
35.88000 1828.000
35.96000 1843.000
36.04000 1744.000
36.12000 1768.000
36.20000 1784.000
36.28000 1679.000
36.36000 1685.000
36.44000 1624.000
36.52000 1603.000
36.60000 1512.000
36.68000 1517.000
36.76000 1602.000
36.84000 1582.000
36.92000 1617.000
37.00000 1543.000
37.08000 1566.000
37.16000 1505.000
37.24000 1497.000
37.32000 1502.000
37.40000 1486.000
37.48000 1502.000
37.56000 1484.000
37.64000 1443.000
37.72000 1566.000
37.80000 1498.000
37.88000 1499.000
37.96000 1524.000
38.04000 1414.000
38.12000 1455.000
38.20000 1422.000
38.28000 1414.000
38.36000 1405.000
38.44000 1453.000
38.52000 1413.000
38.60000 1350.000
38.68000 1484.000
38.76000 1427.000
38.84000 1400.000
38.92000 1409.000
39.00000 1411.000
39.08000 1431.000
39.16000 1393.000
39.24000 1416.000
39.32000 1368.000
39.40000 1424.000
39.48000 1457.000
39.56000 1439.000
39.64000 1392.000
39.72000 1489.000
39.80000 1442.000
39.88000 1411.000
39.96000 1413.000
40.04000 1478.000
40.12000 1473.000
40.20000 1555.000
40.28000 1564.000
40.36000 1573.000
40.44000 1628.000
40.52000 1622.000
40.60000 1649.000
40.68000 1696.000
40.76000 1609.000
40.84000 1414.000
40.92000 1438.000
41.00000 1433.000
41.08000 1359.000
41.16000 1463.000
41.24000 1422.000
41.32000 1356.000
41.40000 1404.000
41.48000 1422.000
41.56000 1445.000
41.64000 1465.000
41.72000 1451.000
41.80000 1459.000
41.88000 1478.000
41.96000 1524.000
42.04000 1544.000
42.12000 1455.000
42.20000 1520.000
42.28000 1471.000
42.36000 1393.000
42.44000 1470.000
42.52000 1446.000
42.60000 1428.000
42.68000 1413.000
42.76000 1470.000
42.84000 1410.000
42.92000 1336.000
43.00000 1373.000
43.08000 1414.000
43.16000 1351.000
43.24000 1400.000
43.32000 1463.000
43.40000 1366.000
43.48000 1373.000
43.56000 1398.000
43.64000 1480.000
43.72000 1355.000
43.80000 1393.000
43.88000 1308.000
43.96000 1394.000
44.04000 1390.000
44.12000 1399.000
44.20000 1309.000
44.28000 1435.000
44.36000 1356.000
44.44000 1316.000
44.52000 1391.000
44.60000 1299.000
44.68000 1330.000
44.76000 1330.000
44.84000 1370.000
44.92000 1335.000
45.00000 1356.000
45.08000 1375.000
45.16000 1370.000
45.24000 1346.000
45.32000 1365.000
45.40000 1309.000
45.48000 1358.000
45.56000 1355.000
45.64000 1303.000
45.72000 1370.000
45.80000 1302.000
45.88000 1356.000
45.96000 1361.000
46.04000 1429.000
46.12000 1526.000
46.20000 1725.000
46.28000 2097.000
46.36000 2145.000
46.44000 2204.000
46.52000 2103.000
46.60000 1990.000
46.68000 1780.000
46.76000 1633.000
46.84000 1542.000
46.92000 1425.000
47.00000 1423.000
47.08000 1408.000
47.16000 1425.000
47.24000 1358.000
47.32000 1308.000
47.40000 1364.000
47.48000 1262.000
47.56000 1223.000
47.64000 1253.000
47.72000 1303.000
47.80000 1336.000
47.88000 1290.000
47.96000 1259.000
48.04000 1232.000
48.12000 1251.000
48.20000 1274.000
48.28000 1232.000
48.36000 1242.000
48.44000 1212.000
48.52000 1275.000
48.60000 1300.000
48.68000 1275.000
48.76000 1399.000
48.84000 1328.000
48.92000 1388.000
49.00000 1317.000
49.08000 1241.000
49.16000 1317.000
49.24000 1252.000
49.32000 1195.000
49.40000 1266.000
49.48000 1245.000
49.56000 1196.000
49.64000 1227.000
49.72000 1245.000
49.80000 1165.000
49.88000 1191.000
49.96000 1219.000
50.04000 1217.000
50.12000 1217.000
50.20000 1183.000
50.28000 1211.000
50.36000 1191.000
50.44000 1130.000
50.52000 1172.000
50.60000 1141.000
50.68000 1195.000
50.76000 1160.000
50.84000 1221.000
50.92000 1200.000
51.00000 1114.000
51.08000 1186.000
51.16000 1200.000
51.24000 1227.000
51.32000 1198.000
51.40000 1197.000
51.48000 1186.000
51.56000 1246.000
51.64000 1213.000
51.72000 1257.000
51.80000 1368.000
51.88000 1589.000
51.96000 1748.000
52.04000 1929.000
52.12000 1914.000
52.20000 1722.000
52.28000 1469.000
52.36000 1321.000
52.44000 1219.000
52.52000 1215.000
52.60000 1236.000
52.68000 1193.000
52.76000 1205.000
52.84000 1123.000
52.92000 1241.000
53.00000 1251.000
53.08000 1250.000
53.16000 1223.000
53.24000 1263.000
53.32000 1217.000
53.40000 1235.000
53.48000 1190.000
53.56000 1215.000
53.64000 1240.000
53.72000 1194.000
53.80000 1237.000
53.88000 1148.000
53.96000 1201.000
54.04000 1143.000
54.12000 1115.000
54.20000 1169.000
54.28000 1177.000
54.36000 1122.000
54.44000 1122.000
54.52000 1190.000
54.60000 1102.000
54.68000 1062.000
54.76000 1155.000
54.84000 1161.000
54.92000 1075.000
55.00000 1131.000
55.08000 1128.000
55.16000 1134.000
55.24000 1080.000
55.32000 1151.000
55.40000 1147.000
55.48000 1184.000
55.56000 1195.000
55.64000 1170.000
55.72000 1147.000
55.80000 1105.000
55.88000 1085.000
55.96000 1109.000
56.04000 1098.000
56.12000 1103.000
56.20000 1089.000
56.28000 1154.000
56.36000 1160.000
56.44000 1086.000
56.52000 1074.000
56.60000 1239.000
56.68000 1171.000
56.76000 1149.000
56.84000 1142.000
56.92000 1113.000
57.00000 1069.000
57.08000 1070.000
57.16000 1162.000
57.24000 1105.000
57.32000 1141.000
57.40000 1125.000
57.48000 1114.000
57.56000 1103.000
57.64000 1142.000
57.72000 1130.000
57.80000 1173.000
57.88000 1083.000
57.96000 1131.000
58.04000 1107.000
58.12000 1101.000
58.20000 1087.000
58.28000 1108.000
58.36000 1065.000
58.44000 1170.000
58.52000 1215.000
58.60000 1130.000
58.68000 1196.000
58.76000 1125.000
58.84000 1144.000
58.92000 1164.000
59.00000 1157.000
59.08000 1201.000
59.16000 1168.000
59.24000 1113.000
59.32000 1111.000
59.40000 1105.000
59.48000 1067.000
59.56000 1132.000
59.64000 1101.000
59.72000 1141.000
59.80000 1058.000
59.88000 1120.000
59.96000 1166.000
60.04000 1060.000
60.12000 1158.000
60.20000 1083.000
60.28000 1177.000
60.36000 1120.000
60.44000 1120.000
60.52000 1104.000
60.60000 1098.000
60.68000 1108.000
60.76000 1142.000
60.84000 1207.000
60.92000 1078.000
61.00000 1115.000
61.08000 1150.000
61.16000 1044.000
61.24000 1163.000
61.32000 1095.000
61.40000 1158.000
61.48000 1122.000
61.56000 1127.000
61.64000 1107.000
61.72000 1177.000
61.80000 1170.000
61.88000 1113.000
61.96000 1135.000
62.04000 1060.000
62.12000 1131.000
62.20000 1121.000
62.28000 1090.000
62.36000 1101.000
62.44000 1118.000
62.52000 1053.000
62.60000 1118.000
62.68000 1062.000
62.76000 1073.000
62.84000 1047.000
62.92000 1031.000
63.00000 1060.000
63.08000 1057.000
63.16000 1127.000
63.24000 1044.000
63.32000 1111.000
63.40000 1086.000
63.48000 1102.000
63.56000 1077.000
63.64000 1125.000
63.72000 918.000
63.80000 1077.000
63.88000 1095.000
63.96000 1075.000
64.04000 1070.000
64.12000 1145.000
64.20000 1142.000
64.28000 1114.000
64.36000 1050.000
64.44000 1008.000
64.52000 1081.000
64.60000 1058.000
64.68000 1136.000
64.76000 1047.000
64.84000 1073.000
64.92000 1124.000
65.00000 1053.000
65.08000 1089.000
65.16000 1080.000
65.24000 1034.000
65.32000 1075.000
65.40000 1069.000
65.48000 1015.000
65.56000 1083.000
65.64000 1047.000
65.72000 1039.000
65.80000 1031.000
65.88000 984.000
65.96000 1069.000
66.04000 1031.000
66.12000 996.000
66.20000 1029.000
66.28000 1043.000
66.36000 1005.000
66.44000 999.000
66.52000 1063.000
66.60000 1032.000
66.68000 1009.000
66.76000 1024.000
66.84000 1052.000
66.92000 1056.000
67.00000 978.000
67.08000 1063.000
67.16000 1067.000
67.24000 1053.000
67.32000 1027.000
67.40000 982.000
67.48000 992.000
67.56000 1011.000
67.64000 998.000
67.72000 997.000
67.80000 1029.000
67.88000 964.000
67.96000 1055.000
68.04000 1053.000
68.12000 983.000
68.20000 1022.000
68.28000 927.000
68.36000 1047.000
68.44000 964.000
68.52000 911.000
68.60000 964.000
68.68000 990.000
68.76000 948.000
68.84000 997.000
68.92000 975.000
69.00000 982.000
69.08000 905.000
69.16000 969.000
69.24000 921.000
69.32000 955.000
69.40000 992.000
69.48000 983.000
69.56000 960.000
69.64000 968.000
69.72000 1009.000
69.80000 955.000
69.88000 972.000
69.92000 910.000