File: XRD/7.xy
5.00000 628.000
5.04000 578.000
5.08000 621.000
5.12000 589.000
5.16000 597.000
5.20000 603.000
5.24000 583.000
5.28000 569.000
5.32000 579.000
5.36000 581.000
5.40000 557.000
5.44000 591.000
5.48000 542.000
5.52000 549.000
5.56000 552.000
5.60000 564.000
5.64000 532.000
5.68000 483.000
5.72000 494.000
5.76000 520.000
5.80000 524.000
5.84000 509.000
5.88000 534.000
5.92000 533.000
5.96000 547.000
6.00000 456.000
6.04000 481.000
6.08000 489.000
6.12000 496.000
6.16000 507.000
6.20000 472.000
6.24000 490.000
6.28000 496.000
6.32000 481.000
6.36000 450.000
6.40000 507.000
6.44000 467.000
6.48000 472.000
6.52000 435.000
6.56000 476.000
6.60000 433.000
6.64000 461.000
6.68000 463.000
6.72000 448.000
6.76000 481.000
6.80000 441.000
6.84000 513.000
6.88000 426.000
6.92000 407.000
6.96000 430.000
7.00000 425.000
7.04000 443.000
7.08000 421.000
7.12000 439.000
7.16000 421.000
7.20000 465.000
7.24000 397.000
7.28000 424.000
7.32000 450.000
7.36000 417.000
7.40000 415.000
7.44000 411.000
7.48000 427.000
7.52000 402.000
7.56000 411.000
7.60000 393.000
7.64000 410.000
7.68000 378.000
7.72000 380.000
7.76000 369.000
7.80000 365.000
7.84000 405.000
7.88000 364.000
7.92000 362.000
7.96000 409.000
8.00000 409.000
8.04000 375.000
8.08000 351.000
8.12000 366.000
8.16000 326.000
8.20000 367.000
8.24000 355.000
8.28000 334.000
8.32000 352.000
8.36000 359.000
8.40000 362.000
8.44000 370.000
8.48000 350.000
8.52000 403.000
8.56000 350.000
8.60000 383.000
8.64000 349.000
8.68000 341.000
8.72000 306.000
8.76000 327.000
8.80000 361.000
8.84000 329.000
8.88000 332.000
8.92000 337.000
8.96000 319.000
9.00000 288.000
9.04000 363.000
9.08000 325.000
9.12000 345.000
9.16000 293.000
9.20000 343.000
9.24000 305.000
9.28000 315.000
9.32000 321.000
9.36000 309.000
9.40000 321.000
9.44000 305.000
9.48000 337.000
9.52000 336.000
9.56000 326.000
9.60000 297.000
9.64000 338.000
9.68000 295.000
9.72000 326.000
9.76000 281.000
9.80000 300.000
9.84000 320.000
9.88000 291.000
9.92000 308.000
9.96000 292.000
10.00000 288.000
10.04000 288.000
10.08000 299.000
10.12000 289.000
10.16000 289.000
10.20000 301.000
10.24000 312.000
10.28000 273.000
10.32000 301.000
10.36000 300.000
10.40000 303.000
10.44000 269.000
10.48000 268.000
10.52000 283.000
10.56000 266.000
10.60000 316.000
10.64000 296.000
10.68000 282.000
10.72000 285.000
10.76000 307.000
10.80000 311.000
10.84000 300.000
10.88000 259.000
10.92000 279.000
10.96000 261.000
11.00000 262.000
11.04000 293.000
11.08000 305.000
11.12000 275.000
11.16000 268.000
11.20000 278.000
11.24000 236.000
11.28000 270.000
11.32000 242.000
11.36000 275.000
11.40000 245.000
11.44000 253.000
11.48000 233.000
11.52000 267.000
11.56000 235.000
11.60000 278.000
11.64000 285.000
11.68000 246.000
11.72000 266.000
11.76000 281.000
11.80000 309.000
11.84000 265.000
11.88000 246.000
11.92000 261.000
11.96000 246.000
12.00000 283.000
12.04000 272.000
12.08000 289.000
12.12000 265.000
12.16000 271.000
12.20000 254.000
12.24000 266.000
12.28000 279.000
12.32000 272.000
12.36000 264.000
12.40000 263.000
12.44000 261.000
12.48000 294.000
12.52000 279.000
12.56000 277.000
12.60000 277.000
12.64000 283.000
12.68000 309.000
12.72000 351.000
12.76000 308.000
12.80000 306.000
12.84000 359.000
12.88000 327.000
12.92000 351.000
12.96000 382.000
13.00000 377.000
13.04000 387.000
13.08000 417.000
13.12000 360.000
13.16000 343.000
13.20000 355.000
13.24000 372.000
13.28000 369.000
13.32000 385.000
13.36000 375.000
13.40000 417.000
13.44000 443.000
13.48000 405.000
13.52000 460.000
13.56000 497.000
13.60000 588.000
13.64000 616.000
13.68000 737.000
13.72000 885.000
13.76000 1003.000
13.80000 1235.000
13.84000 1406.000
13.88000 1518.000
13.92000 1577.000
13.96000 1716.000
14.00000 1921.000
14.04000 2274.000
14.08000 2835.000
14.12000 3442.000
14.16000 4267.000
14.20000 5597.000
14.24000 7229.000
14.28000 9782.000
14.32000 13060.000
14.36000 17328.000
14.40000 23850.000
14.44000 30902.000
14.48000 34027.000
14.52000 28828.000
14.56000 18456.000
14.60000 10326.000
14.64000 5702.000
14.68000 3336.000
14.72000 2093.000
14.76000 1398.000
14.80000 1051.000
14.84000 860.000
14.88000 772.000
14.92000 604.000
14.96000 542.000
15.00000 486.000
15.04000 506.000
15.08000 428.000
15.12000 416.000
15.16000 386.000
15.20000 370.000
15.24000 351.000
15.28000 334.000
15.32000 299.000
15.36000 299.000
15.40000 325.000
15.44000 308.000
15.48000 283.000
15.52000 268.000
15.56000 291.000
15.60000 259.000
15.64000 259.000
15.68000 245.000
15.72000 249.000
15.76000 237.000
15.80000 248.000
15.84000 252.000
15.88000 249.000
15.92000 239.000
15.96000 247.000
16.00000 243.000
16.04000 228.000
16.08000 212.000
16.12000 207.000
16.16000 258.000
16.20000 218.000
16.24000 247.000
16.28000 216.000
16.32000 217.000
16.36000 257.000
16.40000 221.000
16.44000 207.000
16.48000 200.000
16.52000 220.000
16.56000 215.000
16.60000 210.000
16.64000 206.000
16.68000 205.000
16.72000 183.000
16.76000 217.000
16.80000 207.000
16.84000 221.000
16.88000 227.000
16.92000 203.000
16.96000 190.000
17.00000 213.000
17.04000 196.000
17.08000 216.000
17.12000 207.000
17.16000 213.000
17.20000 200.000
17.24000 201.000
17.28000 199.000
17.32000 170.000
17.36000 203.000
17.40000 192.000
17.44000 218.000
17.48000 219.000
17.52000 229.000
17.56000 191.000
17.60000 207.000
17.64000 207.000
17.68000 199.000
17.72000 221.000
17.76000 217.000
17.80000 200.000
17.84000 208.000
17.88000 204.000
17.92000 202.000
17.96000 217.000
18.00000 220.000
18.04000 215.000
18.08000 206.000
18.12000 202.000
18.16000 180.000
18.20000 228.000
18.24000 212.000
18.28000 214.000
18.32000 210.000
18.36000 198.000
18.40000 210.000
18.44000 226.000
18.48000 200.000
18.52000 198.000
18.56000 201.000
18.60000 210.000
18.64000 216.000
18.68000 219.000
18.72000 221.000
18.76000 186.000
18.80000 234.000
18.84000 213.000
18.88000 217.000
18.92000 211.000
18.96000 217.000
19.00000 212.000
19.04000 201.000
19.08000 227.000
19.12000 175.000
19.16000 261.000
19.20000 214.000
19.24000 212.000
19.28000 198.000
19.32000 219.000
19.36000 201.000
19.40000 220.000
19.44000 215.000
19.48000 220.000
19.52000 209.000
19.56000 214.000
19.60000 218.000
19.64000 222.000
19.68000 239.000
19.72000 225.000
19.76000 198.000
19.80000 214.000
19.84000 223.000
19.88000 224.000
19.92000 219.000
19.96000 231.000
20.00000 239.000
20.04000 245.000
20.08000 249.000
20.12000 243.000
20.16000 301.000
20.20000 274.000
20.24000 273.000
20.28000 355.000
20.32000 400.000
20.36000 473.000
20.40000 531.000
20.44000 651.000
20.48000 828.000
20.52000 910.000
20.56000 930.000
20.60000 813.000
20.64000 543.000
20.68000 417.000
20.72000 332.000
20.76000 306.000
20.80000 288.000
20.84000 229.000
20.88000 262.000
20.92000 219.000
20.96000 229.000
21.00000 244.000
21.04000 233.000
21.08000 235.000
21.12000 237.000
21.16000 229.000
21.20000 202.000
21.24000 261.000
21.28000 229.000
21.32000 232.000
21.36000 223.000
21.40000 209.000
21.44000 212.000
21.48000 248.000
21.52000 235.000
21.56000 242.000
21.60000 208.000
21.64000 224.000
21.68000 208.000
21.72000 225.000
21.76000 227.000
21.80000 197.000
21.84000 205.000
21.88000 231.000
21.92000 225.000
21.96000 223.000
22.00000 251.000
22.04000 230.000
22.08000 195.000
22.12000 239.000
22.16000 233.000
22.20000 227.000
22.24000 228.000
22.28000 251.000
22.32000 219.000
22.36000 237.000
22.40000 240.000
22.44000 220.000
22.48000 233.000
22.52000 234.000
22.56000 243.000
22.60000 223.000
22.64000 222.000
22.68000 254.000
22.72000 258.000
22.76000 234.000
22.80000 228.000
22.84000 222.000
22.88000 245.000
22.92000 249.000
22.96000 235.000
23.00000 236.000
23.04000 237.000
23.08000 255.000
23.12000 245.000
23.16000 213.000
23.20000 247.000
23.24000 220.000
23.28000 261.000
23.32000 235.000
23.36000 272.000
23.40000 251.000
23.44000 257.000
23.48000 250.000
23.52000 224.000
23.56000 244.000
23.60000 222.000
23.64000 228.000
23.68000 222.000
23.72000 256.000
23.76000 203.000
23.80000 212.000
23.84000 240.000
23.88000 255.000
23.92000 256.000
23.96000 214.000
24.00000 232.000
24.04000 241.000
24.08000 216.000
24.12000 226.000
24.16000 240.000
24.20000 228.000
24.24000 209.000
24.28000 223.000
24.32000 228.000
24.36000 208.000
24.40000 246.000
24.44000 227.000
24.48000 242.000
24.52000 227.000
24.56000 240.000
24.60000 219.000
24.64000 223.000
24.68000 228.000
24.72000 222.000
24.76000 263.000
24.80000 225.000
24.84000 270.000
24.88000 219.000
24.92000 272.000
24.96000 248.000
25.00000 260.000
25.04000 286.000
25.08000 302.000
25.12000 337.000
25.16000 353.000
25.20000 422.000
25.24000 407.000
25.28000 412.000
25.32000 350.000
25.36000 318.000
25.40000 268.000
25.44000 256.000
25.48000 233.000
25.52000 197.000
25.56000 220.000
25.60000 194.000
25.64000 195.000
25.68000 221.000
25.72000 205.000
25.76000 207.000
25.80000 207.000
25.84000 202.000
25.88000 214.000
25.92000 218.000
25.96000 210.000
26.00000 186.000
26.04000 196.000
26.08000 192.000
26.12000 195.000
26.16000 201.000
26.20000 220.000
26.24000 220.000
26.28000 232.000
26.32000 221.000
26.36000 217.000
26.40000 241.000
26.44000 194.000
26.48000 195.000
26.52000 196.000
26.56000 234.000
26.60000 222.000
26.64000 202.000
26.68000 187.000
26.72000 183.000
26.76000 189.000
26.80000 202.000
26.84000 198.000
26.88000 175.000
26.92000 209.000
26.96000 204.000
27.00000 190.000
27.04000 208.000
27.08000 205.000
27.12000 199.000
27.16000 206.000
27.20000 229.000
27.24000 225.000
27.28000 202.000
27.32000 176.000
27.36000 185.000
27.40000 193.000
27.44000 221.000
27.48000 185.000
27.52000 188.000
27.56000 178.000
27.60000 233.000
27.64000 224.000
27.68000 232.000
27.72000 206.000
27.76000 225.000
27.80000 248.000
27.84000 266.000
27.88000 268.000
27.92000 290.000
27.96000 297.000
28.00000 270.000
28.04000 238.000
28.08000 249.000
28.12000 226.000
28.16000 253.000
28.20000 255.000
28.24000 241.000
28.28000 248.000
28.32000 236.000
28.36000 245.000
28.40000 235.000
28.44000 261.000
28.48000 253.000
28.52000 262.000
28.56000 267.000
28.60000 293.000
28.64000 289.000
28.68000 384.000
28.72000 385.000
28.76000 415.000
28.80000 438.000
28.84000 568.000
28.88000 693.000
28.92000 913.000
28.96000 1278.000
29.00000 1690.000
29.04000 2443.000
29.08000 3214.000
29.12000 4517.000
29.16000 5972.000
29.20000 6973.000
29.24000 7129.000
29.28000 6115.000
29.32000 4564.000
29.36000 2914.000
29.40000 1818.000
29.44000 1188.000
29.48000 735.000
29.52000 516.000
29.56000 406.000
29.60000 381.000
29.64000 302.000
29.68000 291.000
29.72000 252.000
29.76000 224.000
29.80000 236.000
29.84000 232.000
29.88000 197.000
29.92000 204.000
29.96000 212.000
30.00000 187.000
30.04000 194.000
30.08000 178.000
30.12000 187.000
30.16000 189.000
30.20000 197.000
30.24000 189.000
30.28000 206.000
30.32000 196.000
30.36000 199.000
30.40000 180.000
30.44000 191.000
30.48000 167.000
30.52000 194.000
30.56000 175.000
30.60000 190.000
30.64000 176.000
30.68000 145.000
30.72000 185.000
30.76000 166.000
30.80000 167.000
30.84000 166.000
30.88000 153.000
30.92000 182.000
30.96000 191.000
31.00000 171.000
31.04000 202.000
31.08000 180.000
31.12000 204.000
31.16000 162.000
31.20000 202.000
31.24000 180.000
31.28000 216.000
31.32000 204.000
31.36000 212.000
31.40000 198.000
31.44000 180.000
31.48000 159.000
31.52000 189.000
31.56000 151.000
31.60000 174.000
31.64000 169.000
31.68000 181.000
31.72000 210.000
31.76000 173.000
31.80000 191.000
31.84000 170.000
31.88000 165.000
31.92000 166.000
31.96000 195.000
32.00000 186.000
32.04000 188.000
32.08000 194.000
32.12000 182.000
32.16000 167.000
32.20000 214.000
32.24000 206.000
32.28000 232.000
32.32000 237.000
32.36000 272.000
32.40000 327.000
32.44000 398.000
32.48000 541.000
32.52000 662.000
32.56000 896.000
32.60000 1199.000
32.64000 1677.000
32.68000 2143.000
32.72000 2701.000
32.76000 3111.000
32.80000 2966.000
32.84000 2675.000
32.88000 2121.000
32.92000 1387.000
32.96000 952.000
33.00000 583.000
33.04000 426.000
33.08000 311.000
33.12000 274.000
33.16000 233.000
33.20000 224.000
33.24000 189.000
33.28000 170.000
33.32000 163.000
33.36000 152.000
33.40000 161.000
33.44000 166.000
33.48000 127.000
33.52000 149.000
33.56000 144.000
33.60000 162.000
33.64000 161.000
33.68000 155.000
33.72000 127.000
33.76000 144.000
33.80000 123.000
33.84000 165.000
33.88000 127.000
33.92000 137.000
33.96000 124.000
34.00000 118.000
34.04000 120.000
34.08000 123.000
34.12000 124.000
34.16000 120.000
34.20000 107.000
34.24000 126.000
34.28000 113.000
34.32000 128.000
34.36000 129.000
34.40000 103.000
34.44000 114.000
34.48000 118.000
34.52000 121.000
34.56000 135.000
34.60000 124.000
34.64000 121.000
34.68000 100.000
34.72000 123.000
34.76000 116.000
34.80000 111.000
34.84000 125.000
34.88000 106.000
34.92000 102.000
34.96000 112.000
35.00000 104.000
35.04000 100.000
35.08000 100.000
35.12000 87.000
35.16000 94.000
35.20000 117.000
35.24000 104.000
35.28000 103.000
35.32000 102.000
35.36000 98.000
35.40000 106.000
35.44000 97.000
35.48000 119.000
35.52000 119.000
35.56000 116.000
35.60000 112.000
35.64000 106.000
35.68000 129.000
35.72000 138.000
35.76000 173.000
35.80000 176.000
35.84000 200.000
35.88000 317.000
35.92000 336.000
35.96000 416.000
36.00000 469.000
36.04000 505.000
36.08000 390.000
36.12000 317.000
36.16000 280.000
36.20000 238.000
36.24000 159.000
36.28000 139.000
36.32000 139.000
36.36000 117.000
36.40000 109.000
36.44000 109.000
36.48000 83.000
36.52000 86.000
36.56000 107.000
36.60000 75.000
36.64000 85.000
36.68000 105.000
36.72000 91.000
36.76000 99.000
36.80000 89.000
36.84000 96.000
36.88000 109.000
36.92000 89.000
36.96000 91.000
37.00000 93.000
37.04000 84.000
37.08000 101.000
37.12000 82.000
37.16000 109.000
37.20000 87.000
37.24000 95.000
37.28000 87.000
37.32000 92.000
37.36000 85.000
37.40000 94.000
37.44000 82.000
37.48000 96.000
37.52000 79.000
37.56000 86.000
37.60000 83.000
37.64000 83.000
37.68000 75.000
37.72000 97.000
37.76000 83.000
37.80000 90.000
37.84000 76.000
37.88000 97.000
37.92000 85.000
37.96000 87.000
38.00000 75.000
38.04000 96.000
38.08000 90.000
38.12000 77.000
38.16000 99.000
38.20000 85.000
38.24000 69.000
38.28000 89.000
38.32000 79.000
38.36000 90.000
38.40000 89.000
38.44000 77.000
38.48000 77.000
38.52000 99.000
38.56000 83.000
38.60000 81.000
38.64000 68.000
38.68000 80.000
38.72000 92.000
38.76000 82.000
38.80000 69.000
38.84000 80.000
38.88000 83.000
38.92000 80.000
38.96000 85.000
39.00000 87.000
39.04000 71.000
39.08000 97.000
39.12000 86.000
39.16000 78.000
39.20000 83.000
39.24000 101.000
39.28000 75.000
39.32000 92.000
39.36000 89.000
39.40000 91.000
39.44000 91.000
39.48000 75.000
39.52000 93.000
39.56000 79.000
39.60000 78.000
39.64000 81.000
39.68000 84.000
39.72000 57.000
39.76000 68.000
39.80000 105.000
39.84000 95.000
39.88000 94.000
39.92000 78.000
39.96000 77.000
40.00000 96.000
40.04000 90.000
40.08000 74.000
40.12000 101.000
40.16000 81.000
40.20000 76.000
40.24000 82.000
40.28000 74.000
40.32000 75.000
40.36000 90.000
40.40000 90.000
40.44000 93.000
40.48000 100.000
40.52000 88.000
40.56000 89.000
40.60000 81.000
40.64000 73.000
40.68000 62.000
40.72000 91.000
40.76000 87.000
40.80000 80.000
40.84000 97.000
40.88000 92.000
40.92000 111.000
40.96000 97.000
41.00000 86.000
41.04000 100.000
41.08000 89.000
41.12000 82.000
41.16000 94.000
41.20000 96.000
41.24000 74.000
41.28000 92.000
41.32000 122.000
41.36000 108.000
41.40000 94.000
41.44000 110.000
41.48000 137.000
41.52000 155.000
41.56000 164.000
41.60000 210.000
41.64000 276.000
41.68000 379.000
41.72000 483.000
41.76000 597.000
41.80000 740.000
41.84000 786.000
41.88000 785.000
41.92000 655.000
41.96000 522.000
42.00000 410.000
42.04000 262.000
42.08000 232.000
42.12000 173.000
42.16000 142.000
42.20000 130.000
42.24000 112.000
42.28000 101.000
42.32000 104.000
42.36000 116.000
42.40000 99.000
42.44000 113.000
42.48000 109.000
42.52000 110.000
42.56000 110.000
42.60000 90.000
42.64000 92.000
42.68000 87.000
42.72000 89.000
42.76000 78.000
42.80000 108.000
42.84000 100.000
42.88000 93.000
42.92000 85.000
42.96000 95.000
43.00000 78.000
43.04000 80.000
43.08000 92.000
43.12000 99.000
43.16000 74.000
43.20000 97.000
43.24000 85.000
43.28000 91.000
43.32000 103.000
43.36000 82.000
43.40000 99.000
43.44000 98.000
43.48000 86.000
43.52000 92.000
43.56000 98.000
43.60000 83.000
43.64000 78.000
43.68000 85.000
43.72000 88.000
43.76000 97.000
43.80000 89.000
43.84000 87.000
43.88000 101.000
43.92000 89.000
43.96000 108.000
44.00000 97.000
44.04000 115.000
44.08000 95.000
44.12000 108.000
44.16000 115.000
44.20000 135.000
44.24000 163.000
44.28000 202.000
44.32000 262.000
44.36000 332.000
44.40000 396.000
44.44000 559.000
44.48000 604.000
44.52000 614.000
44.56000 612.000
44.60000 497.000
44.64000 450.000
44.68000 326.000
44.72000 270.000
44.76000 180.000
44.80000 175.000
44.84000 144.000
44.88000 137.000
44.92000 121.000
44.96000 116.000
45.00000 93.000
45.04000 101.000
45.08000 85.000
45.12000 83.000
45.16000 97.000
45.20000 84.000
45.24000 78.000
45.28000 76.000
45.32000 105.000
45.36000 83.000
45.40000 81.000
45.44000 86.000
45.48000 78.000
45.52000 93.000
45.56000 75.000
45.60000 88.000
45.64000 78.000
45.68000 78.000
45.72000 80.000
45.76000 67.000
45.80000 80.000
45.84000 78.000
45.88000 69.000
45.92000 75.000
45.96000 80.000
46.00000 83.000
46.04000 67.000
46.08000 78.000
46.12000 69.000
46.16000 71.000
46.20000 77.000
46.24000 67.000
46.28000 79.000
46.32000 82.000
46.36000 77.000
46.40000 64.000
46.44000 67.000
46.48000 79.000
46.52000 91.000
46.56000 93.000
46.60000 71.000
46.64000 89.000
46.68000 85.000
46.72000 96.000
46.76000 78.000
46.80000 78.000
46.84000 98.000
46.88000 93.000
46.92000 134.000
46.96000 146.000
47.00000 136.000
47.04000 190.000
47.08000 180.000
47.12000 144.000
47.16000 158.000
47.20000 118.000
47.24000 109.000
47.28000 124.000
47.32000 87.000
47.36000 86.000
47.40000 102.000
47.44000 73.000
47.48000 75.000
47.52000 70.000
47.56000 88.000
47.60000 73.000
47.64000 81.000
47.68000 78.000
47.72000 71.000
47.76000 73.000
47.80000 69.000
47.84000 68.000
47.88000 80.000
47.92000 62.000
47.96000 58.000
48.00000 62.000
48.04000 71.000
48.08000 69.000
48.12000 61.000
48.16000 59.000
48.20000 67.000
48.24000 67.000
48.28000 66.000
48.32000 64.000
48.36000 66.000
48.40000 66.000
48.44000 53.000
48.48000 68.000
48.52000 70.000
48.56000 77.000
48.60000 62.000
48.64000 73.000
48.68000 80.000
48.72000 64.000
48.76000 60.000
48.80000 70.000
48.84000 76.000
48.88000 63.000
48.92000 63.000
48.96000 68.000
49.00000 60.000
49.04000 71.000
49.08000 74.000
49.12000 68.000
49.16000 59.000
49.20000 82.000
49.24000 52.000
49.28000 59.000
49.32000 73.000
49.36000 54.000
49.40000 56.000
49.44000 68.000
49.48000 70.000
49.52000 70.000
49.56000 60.000
49.60000 64.000
49.64000 61.000
49.68000 68.000
49.72000 68.000
49.76000 77.000
49.80000 59.000
49.84000 60.000
49.88000 76.000
49.92000 68.000
49.96000 45.000
50.00000 53.000
50.04000 70.000
50.08000 61.000
50.12000 71.000
50.16000 67.000
50.20000 53.000
50.24000 67.000
50.28000 56.000
50.32000 63.000
50.36000 62.000
50.40000 50.000
50.44000 69.000
50.48000 55.000
50.52000 74.000
50.56000 72.000
50.60000 61.000
50.64000 77.000
50.68000 71.000
50.72000 64.000
50.76000 64.000
50.80000 68.000
50.84000 73.000
50.88000 71.000
50.92000 62.000
50.96000 70.000
51.00000 73.000
51.04000 69.000
51.08000 61.000
51.12000 48.000
51.16000 74.000
51.20000 62.000
51.24000 59.000
51.28000 67.000
51.32000 73.000
51.36000 55.000
51.40000 56.000
51.44000 69.000
51.48000 73.000
51.52000 65.000
51.56000 72.000
51.60000 91.000
51.64000 88.000
51.68000 117.000
51.72000 118.000
51.76000 115.000
51.80000 172.000
51.84000 176.000
51.88000 178.000
51.92000 177.000
51.96000 165.000
52.00000 143.000
52.04000 129.000
52.08000 123.000
52.12000 87.000
52.16000 77.000
52.20000 77.000
52.24000 75.000
52.28000 72.000
52.32000 70.000
52.36000 53.000
52.40000 70.000
52.44000 69.000
52.48000 66.000
52.52000 55.000
52.56000 58.000
52.60000 67.000
52.64000 67.000
52.68000 68.000
52.72000 78.000
52.76000 63.000
52.80000 65.000
52.84000 65.000
52.88000 51.000
52.92000 62.000
52.96000 68.000
53.00000 63.000
53.04000 76.000
53.08000 77.000
53.12000 64.000
53.16000 63.000
53.20000 62.000
53.24000 63.000
53.28000 67.000
53.32000 60.000
53.36000 69.000
53.40000 61.000
53.44000 62.000
53.48000 69.000
53.52000 63.000
53.56000 69.000
53.60000 53.000
53.64000 71.000
53.68000 63.000
53.72000 86.000
53.76000 86.000
53.80000 77.000
53.84000 73.000
53.88000 89.000
53.92000 77.000
53.96000 147.000
54.00000 125.000
54.04000 161.000
54.08000 216.000
54.12000 206.000
54.16000 247.000
54.20000 231.000
54.24000 224.000
54.28000 186.000
54.32000 164.000
54.36000 144.000
54.40000 107.000
54.44000 95.000
54.48000 89.000
54.52000 86.000
54.56000 70.000
54.60000 75.000
54.64000 70.000
54.68000 75.000
54.72000 70.000
54.76000 66.000
54.80000 60.000
54.84000 73.000
54.88000 67.000
54.92000 67.000
54.96000 56.000
55.00000 73.000
55.04000 69.000
55.08000 67.000
55.12000 65.000
55.16000 56.000
55.20000 72.000
55.24000 62.000
55.28000 60.000
55.32000 60.000
55.36000 64.000
55.40000 51.000
55.44000 65.000
55.48000 66.000
55.52000 64.000
55.56000 60.000
55.60000 66.000
55.64000 69.000
55.68000 60.000
55.72000 58.000
55.76000 66.000
55.80000 50.000
55.84000 56.000
55.88000 52.000
55.92000 58.000
55.96000 55.000
56.00000 58.000
56.04000 82.000
56.08000 74.000
56.12000 61.000
56.16000 101.000
56.20000 91.000
56.24000 104.000
56.28000 102.000
56.32000 107.000
56.36000 120.000
56.40000 123.000
56.44000 140.000
56.48000 126.000
56.52000 95.000
56.56000 88.000
56.60000 98.000
56.64000 68.000
56.68000 73.000
56.72000 68.000
56.76000 66.000
56.80000 65.000
56.84000 54.000
56.88000 56.000
56.92000 67.000
56.96000 46.000
57.00000 65.000
57.04000 61.000
57.08000 54.000
57.12000 64.000
57.16000 78.000
57.20000 61.000
57.24000 55.000
57.28000 63.000
57.32000 55.000
57.36000 57.000
57.40000 52.000
57.44000 59.000
57.48000 68.000
57.52000 53.000
57.56000 58.000
57.60000 51.000
57.64000 57.000
57.68000 45.000
57.72000 48.000
57.76000 50.000
57.80000 45.000
57.84000 52.000
57.88000 59.000
57.92000 55.000
57.96000 56.000
58.00000 58.000
58.04000 47.000
58.08000 41.000
58.12000 67.000
58.16000 56.000
58.20000 51.000
58.24000 51.000
58.28000 55.000
58.32000 62.000
58.36000 48.000
58.40000 59.000
58.44000 58.000
58.48000 43.000
58.52000 58.000
58.56000 41.000
58.60000 56.000
58.64000 46.000
58.68000 45.000
58.72000 44.000
58.76000 52.000
58.80000 50.000
58.84000 63.000
58.88000 49.000
58.92000 48.000
58.96000 50.000
59.00000 53.000
59.04000 54.000
59.08000 57.000
59.12000 53.000
59.16000 50.000
59.20000 60.000
59.24000 49.000
59.28000 63.000
59.32000 43.000
59.36000 52.000
59.40000 61.000
59.44000 47.000
59.48000 64.000
59.52000 63.000
59.56000 53.000
59.60000 59.000
59.64000 56.000
59.68000 60.000
59.72000 59.000
59.76000 53.000
59.80000 60.000
59.84000 41.000
59.88000 53.000
59.92000 55.000