File: XRD/70.xy
5.00000 2786.000
5.04000 2705.000
5.08000 2714.000
5.12000 2618.000
5.16000 2736.000
5.20000 2573.000
5.24000 2628.000
5.28000 2627.000
5.32000 2694.000
5.36000 2508.000
5.40000 2575.000
5.44000 2491.000
5.48000 2460.000
5.52000 2379.000
5.56000 2468.000
5.60000 2455.000
5.64000 2508.000
5.68000 2311.000
5.72000 2359.000
5.76000 2450.000
5.80000 2358.000
5.84000 2361.000
5.88000 2350.000
5.92000 2260.000
5.96000 2292.000
6.00000 2365.000
6.04000 2209.000
6.08000 2224.000
6.12000 2237.000
6.16000 2219.000
6.20000 2179.000
6.24000 2192.000
6.28000 2223.000
6.32000 2265.000
6.36000 2171.000
6.40000 2125.000
6.44000 2158.000
6.48000 2071.000
6.52000 2017.000
6.56000 2081.000
6.60000 2029.000
6.64000 1986.000
6.68000 2115.000
6.72000 2014.000
6.76000 2095.000
6.80000 2038.000
6.84000 1950.000
6.88000 1996.000
6.92000 1968.000
6.96000 1962.000
7.00000 1893.000
7.04000 1921.000
7.08000 1872.000
7.12000 1927.000
7.16000 1937.000
7.20000 1899.000
7.24000 1896.000
7.28000 1901.000
7.32000 1830.000
7.36000 1786.000
7.40000 1806.000
7.44000 1886.000
7.48000 1797.000
7.52000 1826.000
7.56000 1853.000
7.60000 1871.000
7.64000 1830.000
7.68000 1817.000
7.72000 1794.000
7.76000 1771.000
7.80000 1753.000
7.84000 1751.000
7.88000 1717.000
7.92000 1716.000
7.96000 1690.000
8.00000 1700.000
8.04000 1806.000
8.08000 1675.000
8.12000 1723.000
8.16000 1687.000
8.20000 1725.000
8.24000 1728.000
8.28000 1663.000
8.32000 1667.000
8.36000 1732.000
8.40000 1687.000
8.44000 1685.000
8.48000 1724.000
8.52000 1736.000
8.56000 1674.000
8.60000 1656.000
8.64000 1639.000
8.68000 1594.000
8.72000 1601.000
8.76000 1561.000
8.80000 1512.000
8.84000 1555.000
8.88000 1535.000
8.92000 1482.000
8.96000 1519.000
9.00000 1445.000
9.04000 1450.000
9.08000 1473.000
9.12000 1481.000
9.16000 1529.000
9.20000 1417.000
9.24000 1435.000
9.28000 1528.000
9.32000 1416.000
9.36000 1475.000
9.40000 1476.000
9.44000 1425.000
9.48000 1384.000
9.52000 1470.000
9.56000 1358.000
9.60000 1409.000
9.64000 1363.000
9.68000 1444.000
9.72000 1391.000
9.76000 1337.000
9.80000 1326.000
9.84000 1426.000
9.88000 1393.000
9.92000 1424.000
9.96000 1405.000
10.00000 1390.000
10.04000 1348.000
10.08000 1410.000
10.12000 1309.000
10.16000 1336.000
10.20000 1348.000
10.24000 1358.000
10.28000 1348.000
10.32000 1355.000
10.36000 1292.000
10.40000 1339.000
10.44000 1270.000
10.48000 1304.000
10.52000 1306.000
10.56000 1281.000
10.60000 1331.000
10.64000 1323.000
10.68000 1278.000
10.72000 1346.000
10.76000 1307.000
10.80000 1247.000
10.84000 1241.000
10.88000 1293.000
10.92000 1264.000
10.96000 1256.000
11.00000 1243.000
11.04000 1331.000
11.08000 1263.000
11.12000 1264.000
11.16000 1265.000
11.20000 1260.000
11.24000 1213.000
11.28000 1271.000
11.32000 1266.000
11.36000 1249.000
11.40000 1259.000
11.44000 1301.000
11.48000 1251.000
11.52000 1229.000
11.56000 1209.000
11.60000 1220.000
11.64000 1232.000
11.68000 1224.000
11.72000 1227.000
11.76000 1277.000
11.80000 1213.000
11.84000 1255.000
11.88000 1201.000
11.92000 1274.000
11.96000 1196.000
12.00000 1232.000
12.04000 1245.000
12.08000 1253.000
12.12000 1203.000
12.16000 1212.000
12.20000 1178.000
12.24000 1180.000
12.28000 1229.000
12.32000 1197.000
12.36000 1227.000
12.40000 1141.000
12.44000 1195.000
12.48000 1206.000
12.52000 1185.000
12.56000 1188.000
12.60000 1121.000
12.64000 1179.000
12.68000 1162.000
12.72000 1173.000
12.76000 1228.000
12.80000 1144.000
12.84000 1124.000
12.88000 1217.000
12.92000 1160.000
12.96000 1072.000
13.00000 1167.000
13.04000 1214.000
13.08000 1154.000
13.12000 1107.000
13.16000 1120.000
13.20000 1159.000
13.24000 1128.000
13.28000 1171.000
13.32000 1118.000
13.36000 1138.000
13.40000 1089.000
13.44000 1150.000
13.48000 1120.000
13.52000 1143.000
13.56000 1096.000
13.60000 1130.000
13.64000 1131.000
13.68000 1076.000
13.72000 1060.000
13.76000 1125.000
13.80000 1209.000
13.84000 1137.000
13.88000 1090.000
13.92000 1078.000
13.96000 1093.000
14.00000 1088.000
14.04000 1077.000
14.08000 1094.000
14.12000 1154.000
14.16000 1119.000
14.20000 1093.000
14.24000 1166.000
14.28000 1147.000
14.32000 1060.000
14.36000 1133.000
14.40000 1108.000
14.44000 1153.000
14.48000 1205.000
14.52000 1152.000
14.56000 1184.000
14.60000 1156.000
14.64000 1235.000
14.68000 1228.000
14.72000 1276.000
14.76000 1267.000
14.80000 1257.000
14.84000 1301.000
14.88000 1277.000
14.92000 1320.000
14.96000 1321.000
15.00000 1310.000
15.04000 1255.000
15.08000 1298.000
15.12000 1269.000
15.16000 1208.000
15.20000 1119.000
15.24000 1166.000
15.28000 1110.000
15.32000 1168.000
15.36000 1067.000
15.40000 1110.000
15.44000 1125.000
15.48000 1133.000
15.52000 1103.000
15.56000 1116.000
15.60000 1084.000
15.64000 1069.000
15.68000 1130.000
15.72000 1093.000
15.76000 1060.000
15.80000 1158.000
15.84000 1092.000
15.88000 1120.000
15.92000 1133.000
15.96000 1116.000
16.00000 1104.000
16.04000 1072.000
16.08000 1161.000
16.12000 1088.000
16.16000 1114.000
16.20000 1167.000
16.24000 1155.000
16.28000 1121.000
16.32000 1111.000
16.36000 1149.000
16.40000 1098.000
16.44000 1118.000
16.48000 1150.000
16.52000 1154.000
16.56000 1150.000
16.60000 1136.000
16.64000 1116.000
16.68000 1158.000
16.72000 1163.000
16.76000 1170.000
16.80000 1180.000
16.84000 1211.000
16.88000 1253.000
16.92000 1288.000
16.96000 1332.000
17.00000 1318.000
17.04000 1414.000
17.08000 1403.000
17.12000 1357.000
17.16000 1434.000
17.20000 1427.000
17.24000 1344.000
17.28000 1293.000
17.32000 1327.000
17.36000 1231.000
17.40000 1293.000
17.44000 1225.000
17.48000 1223.000
17.52000 1233.000
17.56000 1265.000
17.60000 1303.000
17.64000 1309.000
17.68000 1275.000
17.72000 1229.000
17.76000 1197.000
17.80000 1264.000
17.84000 1186.000
17.88000 1231.000
17.92000 1267.000
17.96000 1223.000
18.00000 1292.000
18.04000 1269.000
18.08000 1253.000
18.12000 1266.000
18.16000 1299.000
18.20000 1198.000
18.24000 1222.000
18.28000 1236.000
18.32000 1206.000
18.36000 1311.000
18.40000 1270.000
18.44000 1347.000
18.48000 1366.000
18.52000 1358.000
18.56000 1376.000
18.60000 1320.000
18.64000 1415.000
18.68000 1390.000
18.72000 1429.000
18.76000 1396.000
18.80000 1468.000
18.84000 1530.000
18.88000 1409.000
18.92000 1520.000
18.96000 1603.000
19.00000 1492.000
19.04000 1624.000
19.08000 1779.000
19.12000 1904.000
19.16000 2175.000
19.20000 2514.000
19.24000 3175.000
19.28000 5072.000
19.32000 9322.000
19.36000 15617.000
19.40000 21913.000
19.44000 27536.000
19.48000 31133.000
19.52000 33195.000
19.56000 32723.000
19.60000 29197.000
19.64000 24278.000
19.68000 18126.000
19.72000 12549.000
19.76000 7913.000
19.80000 4647.000
19.84000 3009.000
19.88000 2310.000
19.92000 2099.000
19.96000 1909.000
20.00000 1813.000
20.04000 1716.000
20.08000 1681.000
20.12000 1728.000
20.16000 1642.000
20.20000 1618.000
20.24000 1623.000
20.28000 1680.000
20.32000 1595.000
20.36000 1674.000
20.40000 1793.000
20.44000 1860.000
20.48000 1947.000
20.52000 2121.000
20.56000 2611.000
20.60000 3944.000
20.64000 6772.000
20.68000 10485.000
20.72000 14514.000
20.76000 17093.000
20.80000 20346.000
20.84000 21816.000
20.88000 21431.000
20.92000 19927.000
20.96000 16372.000
21.00000 12661.000
21.04000 8787.000
21.08000 5704.000
21.12000 3579.000
21.16000 2535.000
21.20000 2149.000
21.24000 1931.000
21.28000 1751.000
21.32000 1736.000
21.36000 1753.000
21.40000 1669.000
21.44000 1674.000
21.48000 1668.000
21.52000 1651.000
21.56000 1690.000
21.60000 1699.000
21.64000 1668.000
21.68000 1609.000
21.72000 1639.000
21.76000 1640.000
21.80000 1555.000
21.84000 1607.000
21.88000 1619.000
21.92000 1581.000
21.96000 1661.000
22.00000 1674.000
22.04000 1572.000
22.08000 1581.000
22.12000 1604.000
22.16000 1570.000
22.20000 1658.000
22.24000 1595.000
22.28000 1621.000
22.32000 1617.000
22.36000 1584.000
22.40000 1641.000
22.44000 1620.000
22.48000 1631.000
22.52000 1621.000
22.56000 1626.000
22.60000 1626.000
22.64000 1632.000
22.68000 1607.000
22.72000 1669.000
22.76000 1655.000
22.80000 1599.000
22.84000 1635.000
22.88000 1637.000
22.92000 1694.000
22.96000 1737.000
23.00000 1632.000
23.04000 1644.000
23.08000 1621.000
23.12000 1708.000
23.16000 1681.000
23.20000 1595.000
23.24000 1585.000
23.28000 1627.000
23.32000 1691.000
23.36000 1671.000
23.40000 1714.000
23.44000 1674.000
23.48000 1689.000
23.52000 1674.000
23.56000 1711.000
23.60000 1720.000
23.64000 1747.000
23.68000 1806.000
23.72000 1751.000
23.76000 1836.000
23.80000 1807.000
23.84000 1869.000
23.88000 1841.000
23.92000 1849.000
23.96000 1951.000
24.00000 1979.000
24.04000 2139.000
24.08000 2164.000
24.12000 2161.000
24.16000 2166.000
24.20000 2023.000
24.24000 1938.000
24.28000 1781.000
24.32000 1748.000
24.36000 1737.000
24.40000 1711.000
24.44000 1621.000
24.48000 1621.000
24.52000 1690.000
24.56000 1731.000
24.60000 1692.000
24.64000 1667.000
24.68000 1757.000
24.72000 1744.000
24.76000 1844.000
24.80000 1744.000
24.84000 1778.000
24.88000 1744.000
24.92000 1743.000
24.96000 1844.000
25.00000 1720.000
25.04000 1711.000
25.08000 1766.000
25.12000 1642.000
25.16000 1672.000
25.20000 1645.000
25.24000 1703.000
25.28000 1729.000
25.32000 1719.000
25.36000 1659.000
25.40000 1703.000
25.44000 1759.000
25.48000 1857.000
25.52000 1900.000
25.56000 2087.000
25.60000 2239.000
25.64000 2633.000
25.68000 3002.000
25.72000 3475.000
25.76000 3831.000
25.80000 4196.000
25.84000 4233.000
25.88000 4159.000
25.92000 3957.000
25.96000 3590.000
26.00000 3153.000
26.04000 2916.000
26.08000 2510.000
26.12000 2190.000
26.16000 2072.000
26.20000 1882.000
26.24000 1915.000
26.28000 1826.000
26.32000 1827.000
26.36000 1769.000
26.40000 1733.000
26.44000 1667.000
26.48000 1605.000
26.52000 1626.000
26.56000 1651.000
26.60000 1600.000
26.64000 1643.000
26.68000 1582.000
26.72000 1555.000
26.76000 1597.000
26.80000 1589.000
26.84000 1558.000
26.88000 1639.000
26.92000 1661.000
26.96000 1585.000
27.00000 1663.000
27.04000 1629.000
27.08000 1586.000
27.12000 1602.000
27.16000 1610.000
27.20000 1548.000
27.24000 1619.000
27.28000 1592.000
27.32000 1653.000
27.36000 1564.000
27.40000 1649.000
27.44000 1624.000
27.48000 1660.000
27.52000 1601.000
27.56000 1615.000
27.60000 1571.000
27.64000 1627.000
27.68000 1602.000
27.72000 1615.000
27.76000 1589.000
27.80000 1611.000
27.84000 1607.000
27.88000 1515.000
27.92000 1590.000
27.96000 1694.000
28.00000 1690.000
28.04000 1650.000
28.08000 1614.000
28.12000 1635.000
28.16000 1594.000
28.20000 1633.000
28.24000 1564.000
28.28000 1565.000
28.32000 1570.000
28.36000 1524.000
28.40000 1560.000
28.44000 1579.000
28.48000 1492.000
28.52000 1570.000
28.56000 1561.000
28.60000 1500.000
28.64000 1446.000
28.68000 1590.000
28.72000 1430.000
28.76000 1487.000
28.80000 1508.000
28.84000 1533.000
28.88000 1490.000
28.92000 1532.000
28.96000 1484.000
29.00000 1443.000
29.04000 1496.000
29.08000 1477.000
29.12000 1490.000
29.16000 1412.000
29.20000 1455.000
29.24000 1456.000
29.28000 1412.000
29.32000 1462.000
29.36000 1434.000
29.40000 1367.000
29.44000 1430.000
29.48000 1393.000
29.52000 1430.000
29.56000 1419.000
29.60000 1440.000
29.64000 1376.000
29.68000 1425.000
29.72000 1486.000
29.76000 1580.000
29.80000 1511.000
29.84000 1457.000
29.88000 1488.000
29.92000 1467.000
29.96000 1420.000
30.00000 1481.000
30.04000 1426.000
30.08000 1427.000
30.12000 1427.000
30.16000 1392.000
30.20000 1442.000
30.24000 1534.000
30.28000 1524.000
30.32000 1626.000
30.36000 1602.000
30.40000 1536.000
30.44000 1579.000
30.48000 1473.000
30.52000 1562.000
30.56000 1476.000
30.60000 1419.000
30.64000 1377.000
30.68000 1394.000
30.72000 1387.000
30.76000 1363.000
30.80000 1408.000
30.84000 1369.000
30.88000 1362.000
30.92000 1365.000
30.96000 1363.000
31.00000 1346.000
31.04000 1307.000
31.08000 1316.000
31.12000 1266.000
31.16000 1398.000
31.20000 1312.000
31.24000 1331.000
31.28000 1313.000
31.32000 1294.000
31.36000 1241.000
31.40000 1224.000
31.44000 1254.000
31.48000 1264.000
31.52000 1282.000
31.56000 1295.000
31.60000 1271.000
31.64000 1233.000
31.68000 1244.000
31.72000 1266.000
31.76000 1187.000
31.80000 1232.000
31.84000 1253.000
31.88000 1188.000
31.92000 1236.000
31.96000 1215.000
32.00000 1203.000
32.04000 1275.000
32.08000 1178.000
32.12000 1184.000
32.16000 1183.000
32.20000 1183.000
32.24000 1171.000
32.28000 1170.000
32.32000 1199.000
32.36000 1140.000
32.40000 1165.000
32.44000 1172.000
32.48000 1191.000
32.52000 1188.000
32.56000 1197.000
32.60000 1166.000
32.64000 1142.000
32.68000 1213.000
32.72000 1204.000
32.76000 1178.000
32.80000 1179.000
32.84000 1139.000
32.88000 1129.000
32.92000 1111.000
32.96000 1120.000
33.00000 1216.000
33.04000 1123.000
33.08000 1158.000
33.12000 1110.000
33.16000 1089.000
33.20000 1062.000
33.24000 1154.000
33.28000 1117.000
33.32000 1146.000
33.36000 1165.000
33.40000 1139.000
33.44000 1111.000
33.48000 1155.000
33.52000 1153.000
33.56000 1202.000
33.60000 1175.000
33.64000 1175.000
33.68000 1180.000
33.72000 1278.000
33.76000 1175.000
33.80000 1265.000
33.84000 1201.000
33.88000 1253.000
33.92000 1089.000
33.96000 1127.000
34.00000 1123.000
34.04000 1115.000
34.08000 1115.000
34.12000 1061.000
34.16000 1102.000
34.20000 1097.000
34.24000 1154.000
34.28000 1244.000
34.32000 1273.000
34.36000 1208.000
34.40000 1286.000
34.44000 1223.000
34.48000 1300.000
34.52000 1242.000
34.56000 1139.000
34.60000 1103.000
34.64000 1050.000
34.68000 1029.000
34.72000 949.000
34.76000 1021.000
34.80000 1012.000
34.84000 967.000
34.88000 1036.000
34.92000 982.000
34.96000 1001.000
35.00000 963.000
35.04000 969.000
35.08000 905.000
35.12000 977.000
35.16000 902.000
35.20000 930.000
35.24000 936.000
35.28000 922.000
35.32000 962.000
35.36000 906.000
35.40000 890.000
35.44000 845.000
35.48000 934.000
35.52000 947.000
35.56000 916.000
35.60000 964.000
35.64000 889.000
35.68000 878.000
35.72000 940.000
35.76000 946.000
35.80000 902.000
35.84000 890.000
35.88000 936.000
35.92000 900.000
35.96000 836.000
36.00000 892.000
36.04000 915.000
36.08000 844.000
36.12000 863.000
36.16000 890.000
36.20000 824.000
36.24000 842.000
36.28000 851.000
36.32000 854.000
36.36000 835.000
36.40000 803.000
36.44000 847.000
36.48000 897.000
36.52000 904.000
36.56000 872.000
36.60000 801.000
36.64000 822.000
36.68000 816.000
36.72000 839.000
36.76000 880.000
36.80000 869.000
36.84000 890.000
36.88000 890.000
36.92000 849.000
36.96000 872.000
37.00000 860.000
37.04000 837.000
37.08000 856.000
37.12000 876.000
37.16000 846.000
37.20000 807.000
37.24000 770.000
37.28000 846.000
37.32000 805.000
37.36000 771.000
37.40000 822.000
37.44000 790.000
37.48000 774.000
37.52000 877.000
37.56000 824.000
37.60000 864.000
37.64000 815.000
37.68000 830.000
37.72000 789.000
37.76000 796.000
37.80000 814.000
37.84000 777.000
37.88000 847.000
37.92000 826.000
37.96000 792.000
38.00000 819.000
38.04000 821.000
38.08000 894.000
38.12000 909.000
38.16000 894.000
38.20000 887.000
38.24000 895.000
38.28000 879.000
38.32000 883.000
38.36000 866.000
38.40000 799.000
38.44000 820.000
38.48000 839.000
38.52000 770.000
38.56000 797.000
38.60000 798.000
38.64000 840.000
38.68000 843.000
38.72000 800.000
38.76000 847.000
38.80000 867.000
38.84000 817.000
38.88000 855.000
38.92000 777.000
38.96000 816.000
39.00000 844.000
39.04000 860.000
39.08000 886.000
39.12000 815.000
39.16000 873.000
39.20000 915.000
39.24000 929.000
39.28000 935.000
39.32000 981.000
39.36000 1087.000
39.40000 1238.000
39.44000 1416.000
39.48000 1905.000
39.52000 3104.000
39.56000 4894.000
39.60000 7124.000
39.64000 9382.000
39.68000 11454.000
39.72000 12859.000
39.76000 13021.000
39.80000 12849.000
39.84000 11778.000
39.88000 9889.000
39.92000 7833.000
39.96000 5570.000
40.00000 3777.000
40.04000 2665.000
40.08000 1825.000
40.12000 1353.000
40.16000 1107.000
40.20000 1088.000
40.24000 951.000
40.28000 929.000
40.32000 930.000
40.36000 860.000
40.40000 908.000
40.44000 899.000
40.48000 927.000
40.52000 971.000
40.56000 950.000
40.60000 990.000
40.64000 980.000
40.68000 961.000
40.72000 951.000
40.76000 928.000
40.80000 942.000
40.84000 895.000
40.88000 871.000
40.92000 944.000
40.96000 865.000
41.00000 911.000
41.04000 861.000
41.08000 939.000
41.12000 929.000
41.16000 924.000
41.20000 970.000
41.24000 946.000
41.28000 974.000
41.32000 964.000
41.36000 976.000
41.40000 972.000
41.44000 986.000
41.48000 979.000
41.52000 1000.000
41.56000 1042.000
41.60000 1095.000
41.64000 1078.000
41.68000 1078.000
41.72000 1163.000
41.76000 1163.000
41.80000 1230.000
41.84000 1263.000
41.88000 1284.000
41.92000 1331.000
41.96000 1401.000
42.00000 1416.000
42.04000 1528.000
42.08000 1829.000
42.12000 2124.000
42.16000 2797.000
42.20000 3763.000
42.24000 6099.000
42.28000 11488.000
42.32000 19363.000
42.36000 28761.000
42.40000 38040.000
42.44000 48911.000
42.48000 57266.000
42.52000 60444.000
42.56000 61073.000
42.60000 54867.000
42.64000 46656.000
42.68000 36610.000
42.72000 26494.000
42.76000 17495.000
42.80000 11267.000
42.84000 7100.000
42.88000 4351.000
42.92000 3149.000
42.96000 2598.000
43.00000 2342.000
43.04000 2090.000
43.08000 1961.000
43.12000 1930.000
43.16000 1778.000
43.20000 1721.000
43.24000 1594.000
43.28000 1477.000
43.32000 1355.000
43.36000 1309.000
43.40000 1181.000
43.44000 1118.000
43.48000 1065.000
43.52000 1053.000
43.56000 1035.000
43.60000 1002.000
43.64000 970.000
43.68000 973.000
43.72000 975.000
43.76000 982.000
43.80000 983.000
43.84000 906.000
43.88000 910.000
43.92000 878.000
43.96000 910.000
44.00000 876.000
44.04000 880.000
44.08000 908.000
44.12000 879.000
44.16000 840.000
44.20000 843.000
44.24000 835.000
44.28000 862.000
44.32000 787.000
44.36000 817.000
44.40000 791.000
44.44000 833.000
44.48000 836.000
44.52000 827.000
44.56000 801.000
44.60000 805.000
44.64000 777.000
44.68000 821.000
44.72000 750.000
44.76000 785.000
44.80000 784.000
44.84000 784.000
44.88000 725.000
44.92000 776.000
44.96000 786.000
45.00000 747.000
45.04000 769.000
45.08000 720.000
45.12000 756.000
45.16000 741.000
45.20000 779.000
45.24000 744.000
45.28000 784.000
45.32000 769.000
45.36000 771.000
45.40000 764.000
45.44000 737.000
45.48000 776.000
45.52000 762.000
45.56000 782.000
45.60000 776.000
45.64000 769.000
45.68000 749.000
45.72000 714.000
45.76000 745.000
45.80000 768.000
45.84000 751.000
45.88000 751.000
45.92000 731.000
45.96000 717.000
46.00000 702.000
46.04000 727.000
46.08000 710.000
46.12000 674.000
46.16000 672.000
46.20000 703.000
46.24000 693.000
46.28000 713.000
46.32000 713.000
46.36000 693.000
46.40000 686.000
46.44000 665.000
46.48000 723.000
46.52000 671.000
46.56000 676.000
46.60000 644.000
46.64000 638.000
46.68000 705.000
46.72000 681.000
46.76000 626.000
46.80000 663.000
46.84000 679.000
46.88000 629.000
46.92000 654.000
46.96000 682.000
47.00000 670.000
47.04000 707.000
47.08000 704.000
47.12000 609.000
47.16000 683.000
47.20000 651.000
47.24000 721.000
47.28000 665.000
47.32000 649.000
47.36000 676.000
47.40000 658.000
47.44000 640.000
47.48000 633.000
47.52000 607.000
47.56000 664.000
47.60000 645.000
47.64000 663.000
47.68000 695.000
47.72000 641.000
47.76000 600.000
47.80000 610.000
47.84000 638.000
47.88000 610.000
47.92000 656.000
47.96000 642.000
48.00000 627.000
48.04000 645.000
48.08000 640.000
48.12000 688.000
48.16000 625.000
48.20000 663.000
48.24000 633.000
48.28000 549.000
48.32000 668.000
48.36000 652.000
48.40000 628.000
48.44000 645.000
48.48000 628.000
48.52000 634.000
48.56000 580.000
48.60000 657.000
48.64000 619.000
48.68000 601.000
48.72000 626.000
48.76000 623.000
48.80000 619.000
48.84000 641.000
48.88000 600.000
48.92000 643.000
48.96000 591.000
49.00000 651.000
49.04000 607.000
49.08000 628.000
49.12000 625.000
49.16000 624.000
49.20000 633.000
49.24000 642.000
49.28000 634.000
49.32000 669.000
49.36000 645.000
49.40000 648.000
49.44000 597.000
49.48000 639.000
49.52000 646.000
49.56000 648.000
49.60000 621.000
49.64000 633.000
49.68000 604.000
49.72000 643.000
49.76000 605.000
49.80000 566.000
49.84000 643.000
49.88000 618.000
49.92000 608.000
49.96000 607.000
50.00000 669.000
50.04000 560.000
50.08000 600.000
50.12000 605.000
50.16000 615.000
50.20000 599.000
50.24000 594.000
50.28000 571.000
50.32000 612.000
50.36000 590.000
50.40000 575.000
50.44000 647.000
50.48000 557.000
50.52000 613.000
50.56000 593.000
50.60000 575.000
50.64000 620.000
50.68000 595.000
50.72000 613.000
50.76000 616.000
50.80000 609.000
50.84000 593.000
50.88000 600.000
50.92000 677.000
50.96000 613.000
51.00000 572.000
51.04000 628.000
51.08000 620.000
51.12000 571.000
51.16000 573.000
51.20000 594.000
51.24000 557.000
51.28000 618.000
51.32000 579.000
51.36000 587.000
51.40000 602.000
51.44000 587.000
51.48000 623.000
51.52000 572.000
51.56000 618.000
51.60000 593.000
51.64000 549.000
51.68000 600.000
51.72000 580.000
51.76000 640.000
51.80000 592.000
51.84000 608.000
51.88000 577.000
51.92000 599.000
51.96000 559.000
52.00000 592.000
52.04000 608.000
52.08000 577.000
52.12000 599.000
52.16000 616.000
52.20000 573.000
52.24000 573.000
52.28000 601.000
52.32000 605.000
52.36000 563.000
52.40000 616.000
52.44000 591.000
52.48000 573.000
52.52000 566.000
52.56000 592.000
52.60000 581.000
52.64000 562.000
52.68000 595.000
52.72000 601.000
52.76000 618.000
52.80000 601.000
52.84000 635.000
52.88000 576.000
52.92000 603.000
52.96000 619.000
53.00000 563.000
53.04000 639.000
53.08000 621.000
53.12000 680.000
53.16000 664.000
53.20000 686.000
53.24000 725.000
53.28000 721.000
53.32000 698.000
53.36000 675.000
53.40000 658.000
53.44000 676.000
53.48000 625.000
53.52000 643.000
53.56000 611.000
53.60000 602.000
53.64000 620.000
53.68000 605.000
53.72000 642.000
53.76000 523.000
53.80000 542.000
53.84000 576.000
53.88000 595.000
53.92000 568.000
53.96000 584.000
54.00000 586.000
54.04000 566.000
54.08000 595.000
54.12000 561.000
54.16000 599.000
54.20000 604.000
54.24000 605.000
54.28000 605.000
54.32000 595.000
54.36000 587.000
54.40000 581.000
54.44000 549.000
54.48000 625.000
54.52000 608.000
54.56000 623.000
54.60000 600.000
54.64000 627.000
54.68000 586.000
54.72000 549.000
54.76000 628.000
54.80000 578.000
54.84000 595.000
54.88000 586.000
54.92000 634.000
54.96000 586.000
55.00000 609.000
55.04000 508.000
55.08000 629.000
55.12000 576.000
55.16000 566.000
55.20000 623.000
55.24000 568.000
55.28000 567.000
55.32000 589.000
55.36000 598.000
55.40000 546.000
55.44000 568.000
55.48000 540.000
55.52000 570.000
55.56000 599.000
55.60000 599.000
55.64000 580.000
55.68000 567.000
55.72000 591.000
55.76000 666.000
55.80000 645.000
55.84000 649.000
55.88000 633.000
55.92000 611.000
55.96000 567.000
56.00000 618.000
56.04000 619.000
56.08000 594.000
56.12000 623.000
56.16000 547.000
56.20000 642.000
56.24000 568.000
56.28000 606.000
56.32000 598.000
56.36000 590.000
56.40000 567.000
56.44000 546.000
56.48000 555.000
56.52000 556.000
56.56000 553.000
56.60000 648.000
56.64000 587.000
56.68000 584.000
56.72000 599.000
56.76000 570.000
56.80000 579.000
56.84000 567.000
56.88000 609.000
56.92000 529.000
56.96000 583.000
57.00000 586.000
57.04000 578.000
57.08000 603.000
57.12000 596.000
57.16000 578.000
57.20000 638.000
57.24000 612.000
57.28000 599.000
57.32000 591.000
57.36000 578.000
57.40000 583.000
57.44000 578.000
57.48000 590.000
57.52000 574.000
57.56000 591.000
57.60000 604.000
57.64000 588.000
57.68000 563.000
57.72000 549.000
57.76000 574.000
57.80000 578.000
57.84000 620.000
57.88000 597.000
57.92000 578.000
57.96000 586.000
58.00000 565.000
58.04000 578.000
58.08000 567.000
58.12000 586.000
58.16000 615.000
58.20000 598.000
58.24000 566.000
58.28000 578.000
58.32000 589.000
58.36000 642.000
58.40000 615.000
58.44000 589.000
58.48000 611.000
58.52000 606.000
58.56000 587.000
58.60000 614.000
58.64000 594.000
58.68000 579.000
58.72000 563.000
58.76000 577.000
58.80000 605.000
58.84000 563.000
58.88000 601.000
58.92000 668.000
58.96000 572.000
59.00000 572.000
59.04000 544.000
59.08000 548.000
59.12000 579.000
59.16000 575.000
59.20000 581.000
59.24000 627.000
59.28000 588.000
59.32000 607.000
59.36000 537.000
59.40000 608.000
59.44000 565.000
59.48000 594.000
59.52000 584.000
59.56000 584.000
59.60000 571.000
59.64000 575.000
59.68000 563.000
59.72000 591.000
59.76000 513.000
59.80000 573.000
59.84000 587.000
59.88000 558.000
59.92000 573.000