File: XRD/71.xy
5.00000 5983.000
5.08000 5995.000
5.16000 5868.000
5.24000 5788.000
5.32000 5702.000
5.40000 5689.000
5.48000 5596.000
5.56000 5580.000
5.64000 5513.000
5.72000 5426.000
5.80000 5330.000
5.88000 5180.000
5.96000 5280.000
6.04000 5050.000
6.12000 5000.000
6.20000 4838.000
6.28000 4820.000
6.36000 4819.000
6.44000 4756.000
6.52000 4649.000
6.60000 4714.000
6.68000 4692.000
6.76000 4513.000
6.84000 4558.000
6.92000 4505.000
7.00000 4477.000
7.08000 4435.000
7.16000 4340.000
7.24000 4297.000
7.32000 4188.000
7.40000 4216.000
7.48000 4079.000
7.56000 4076.000
7.64000 3941.000
7.72000 4025.000
7.80000 3959.000
7.88000 3819.000
7.96000 3912.000
8.04000 3829.000
8.12000 3666.000
8.20000 3762.000
8.28000 3859.000
8.36000 3772.000
8.44000 3770.000
8.52000 3685.000
8.60000 3646.000
8.68000 3510.000
8.76000 3433.000
8.84000 3431.000
8.92000 3497.000
9.00000 3349.000
9.08000 3297.000
9.16000 3293.000
9.24000 3338.000
9.32000 3251.000
9.40000 3311.000
9.48000 3284.000
9.56000 3222.000
9.64000 3134.000
9.72000 3173.000
9.80000 3071.000
9.88000 3236.000
9.96000 3082.000
10.04000 3057.000
10.12000 3126.000
10.20000 2975.000
10.28000 2954.000
10.36000 2919.000
10.44000 3000.000
10.52000 3018.000
10.60000 3008.000
10.68000 3020.000
10.76000 2786.000
10.84000 2909.000
10.92000 2805.000
11.00000 2796.000
11.08000 2856.000
11.16000 2781.000
11.24000 2835.000
11.32000 2861.000
11.40000 2794.000
11.48000 2807.000
11.56000 2786.000
11.64000 2731.000
11.72000 2702.000
11.80000 2803.000
11.88000 2750.000
11.96000 2693.000
12.04000 2675.000
12.12000 2636.000
12.20000 2715.000
12.28000 2629.000
12.36000 2534.000
12.44000 2598.000
12.52000 2653.000
12.60000 2602.000
12.68000 2628.000
12.76000 2612.000
12.84000 2567.000
12.92000 2552.000
13.00000 2509.000
13.08000 2582.000
13.16000 2668.000
13.24000 2530.000
13.32000 2488.000
13.40000 2525.000
13.48000 2645.000
13.56000 2539.000
13.64000 2545.000
13.72000 2525.000
13.80000 2420.000
13.88000 2543.000
13.96000 2416.000
14.04000 2540.000
14.12000 2587.000
14.20000 2545.000
14.28000 2486.000
14.36000 2466.000
14.44000 2496.000
14.52000 2549.000
14.60000 2462.000
14.68000 2491.000
14.76000 2553.000
14.84000 2498.000
14.92000 2492.000
15.00000 2583.000
15.08000 2620.000
15.16000 2494.000
15.24000 2591.000
15.32000 2558.000
15.40000 2545.000
15.48000 2539.000
15.56000 2586.000
15.64000 2477.000
15.72000 2517.000
15.80000 2537.000
15.88000 2683.000
15.96000 2570.000
16.04000 2586.000
16.12000 2518.000
16.20000 2704.000
16.28000 2559.000
16.36000 2646.000
16.44000 2669.000
16.52000 2639.000
16.60000 2715.000
16.68000 2694.000
16.76000 2694.000
16.84000 2831.000
16.92000 2809.000
17.00000 2826.000
17.08000 2747.000
17.16000 2804.000
17.24000 2829.000
17.32000 2736.000
17.40000 2824.000
17.48000 2798.000
17.56000 2778.000
17.64000 2691.000
17.72000 2849.000
17.80000 2863.000
17.88000 3056.000
17.96000 2921.000
18.04000 2913.000
18.12000 2827.000
18.20000 2864.000
18.28000 2924.000
18.36000 2904.000
18.44000 2904.000
18.52000 2949.000
18.60000 2955.000
18.68000 3017.000
18.76000 2988.000
18.84000 3062.000
18.92000 3024.000
19.00000 3113.000
19.08000 3086.000
19.16000 3031.000
19.24000 3108.000
19.32000 3050.000
19.40000 3085.000
19.48000 3132.000
19.56000 3170.000
19.64000 3015.000
19.72000 3150.000
19.80000 3262.000
19.88000 3252.000
19.96000 3272.000
20.04000 3139.000
20.12000 3279.000
20.20000 3173.000
20.28000 3192.000
20.36000 3202.000
20.44000 3492.000
20.52000 3358.000
20.60000 3715.000
20.68000 4334.000
20.76000 5769.000
20.84000 6386.000
20.92000 6362.000
21.00000 5488.000
21.08000 4282.000
21.16000 3723.000
21.24000 3434.000
21.32000 3447.000
21.40000 3388.000
21.48000 3555.000
21.56000 3467.000
21.64000 3526.000
21.72000 3480.000
21.80000 3419.000
21.88000 3453.000
21.96000 3500.000
22.04000 3380.000
22.12000 3446.000
22.20000 3374.000
22.28000 3350.000
22.36000 3416.000
22.44000 3407.000
22.52000 3514.000
22.60000 3348.000
22.68000 3448.000
22.76000 3517.000
22.84000 3434.000
22.92000 3447.000
23.00000 3485.000
23.08000 3573.000
23.16000 3557.000
23.24000 3450.000
23.32000 3637.000
23.40000 3443.000
23.48000 3600.000
23.56000 3548.000
23.64000 3555.000
23.72000 3719.000
23.80000 3752.000
23.88000 4486.000
23.96000 7607.000
24.04000 13818.000
24.12000 18429.000
24.20000 18559.000
24.28000 14701.000
24.36000 9020.000
24.44000 4755.000
24.52000 3641.000
24.60000 3550.000
24.68000 3512.000
24.76000 3474.000
24.84000 3342.000
24.92000 3260.000
25.00000 3436.000
25.08000 3338.000
25.16000 3442.000
25.24000 3405.000
25.32000 3271.000
25.40000 3345.000
25.48000 3347.000
25.56000 3371.000
25.64000 3298.000
25.72000 3566.000
25.80000 3512.000
25.88000 3482.000
25.96000 3407.000
26.04000 3281.000
26.12000 3265.000
26.20000 3227.000
26.28000 3211.000
26.36000 3151.000
26.44000 3152.000
26.52000 3162.000
26.60000 3181.000
26.68000 3101.000
26.76000 3208.000
26.84000 3080.000
26.92000 3061.000
27.00000 3015.000
27.08000 3046.000
27.16000 3083.000
27.24000 2998.000
27.32000 2996.000
27.40000 3065.000
27.48000 3046.000
27.56000 2998.000
27.64000 2958.000
27.72000 2811.000
27.80000 2993.000
27.88000 2964.000
27.96000 2918.000
28.04000 2983.000
28.12000 3008.000
28.20000 2998.000
28.28000 2886.000
28.36000 2866.000
28.44000 2853.000
28.52000 2903.000
28.60000 2837.000
28.68000 2856.000
28.76000 2793.000
28.84000 2854.000
28.92000 2892.000
29.00000 2711.000
29.08000 2740.000
29.16000 2773.000
29.24000 2788.000
29.32000 2806.000
29.40000 2737.000
29.48000 2744.000
29.56000 2657.000
29.64000 2801.000
29.72000 2791.000
29.80000 2680.000
29.88000 2655.000
29.96000 2667.000
30.04000 2679.000
30.12000 2649.000
30.20000 2657.000
30.28000 2675.000
30.36000 2623.000
30.44000 2592.000
30.52000 2526.000
30.60000 2610.000
30.68000 2583.000
30.76000 2504.000
30.84000 2485.000
30.92000 2502.000
31.00000 2552.000
31.08000 2540.000
31.16000 2691.000
31.24000 2493.000
31.32000 2538.000
31.40000 2631.000
31.48000 2805.000
31.56000 2970.000
31.64000 3171.000
31.72000 3033.000
31.80000 2716.000
31.88000 2623.000
31.96000 2471.000
32.04000 2409.000
32.12000 2403.000
32.20000 2329.000
32.28000 2274.000
32.36000 2279.000
32.44000 2268.000
32.52000 2295.000
32.60000 2356.000
32.68000 2332.000
32.76000 2263.000
32.84000 2206.000
32.92000 2093.000
33.00000 2165.000
33.08000 2174.000
33.16000 2122.000
33.24000 2129.000
33.32000 2171.000
33.40000 2056.000
33.48000 2105.000
33.56000 2082.000
33.64000 2017.000
33.72000 2058.000
33.80000 2096.000
33.88000 1988.000
33.96000 1927.000
34.04000 1982.000
34.12000 1926.000
34.20000 2019.000
34.28000 1983.000
34.36000 1998.000
34.44000 2081.000
34.52000 2004.000
34.60000 1948.000
34.68000 1909.000
34.76000 1855.000
34.84000 1860.000
34.92000 1807.000
35.00000 1735.000
35.08000 1752.000
35.16000 1768.000
35.24000 1740.000
35.32000 1748.000
35.40000 1793.000
35.48000 1774.000
35.56000 1699.000
35.64000 1733.000
35.72000 1699.000
35.80000 1597.000
35.88000 1657.000
35.96000 1624.000
36.04000 1610.000
36.12000 1615.000
36.20000 1574.000
36.28000 1568.000
36.36000 1572.000
36.44000 1587.000
36.52000 1552.000
36.60000 1482.000
36.68000 1557.000
36.76000 1531.000
36.84000 1497.000
36.92000 1457.000
37.00000 1514.000
37.08000 1487.000
37.16000 1513.000
37.24000 1402.000
37.32000 1450.000
37.40000 1421.000
37.48000 1402.000
37.56000 1370.000
37.64000 1443.000
37.72000 1404.000
37.80000 1453.000
37.88000 1403.000
37.96000 1395.000
38.04000 1384.000
38.12000 1407.000
38.20000 1411.000
38.28000 1447.000
38.36000 1389.000
38.44000 1414.000
38.52000 1377.000
38.60000 1416.000
38.68000 1355.000
38.76000 1344.000
38.84000 1336.000
38.92000 1339.000
39.00000 1308.000
39.08000 1339.000
39.16000 1297.000
39.24000 1306.000
39.32000 1316.000
39.40000 1329.000
39.48000 1282.000
39.56000 1346.000
39.64000 1278.000
39.72000 1328.000
39.80000 1311.000
39.88000 1323.000
39.96000 1327.000
40.04000 1332.000
40.12000 1394.000
40.20000 1306.000
40.28000 1371.000
40.36000 1339.000
40.44000 1351.000
40.52000 1326.000
40.60000 1305.000
40.68000 1357.000
40.76000 1302.000
40.84000 1312.000
40.92000 1308.000
41.00000 1376.000
41.08000 1372.000
41.16000 1307.000
41.24000 1319.000
41.32000 1309.000
41.40000 1337.000
41.48000 1364.000
41.56000 1382.000
41.64000 1282.000
41.72000 1362.000
41.80000 1383.000
41.88000 1410.000
41.96000 1320.000
42.04000 1413.000
42.12000 1407.000
42.20000 1572.000
42.28000 2061.000
42.36000 3640.000
42.44000 5661.000
42.52000 7516.000
42.60000 7781.000
42.68000 6467.000
42.76000 4288.000
42.84000 2595.000
42.92000 1776.000
43.00000 1547.000
43.08000 1454.000
43.16000 1449.000
43.24000 1390.000
43.32000 1268.000
43.40000 1336.000
43.48000 1293.000
43.56000 1339.000
43.64000 1321.000
43.72000 1278.000
43.80000 1362.000
43.88000 1318.000
43.96000 1223.000
44.04000 1215.000
44.12000 1259.000
44.20000 1302.000
44.28000 1298.000
44.36000 1241.000
44.44000 1265.000
44.52000 1266.000
44.60000 1241.000
44.68000 1248.000
44.76000 1230.000
44.84000 1277.000
44.92000 1249.000
45.00000 1294.000
45.08000 1195.000
45.16000 1204.000
45.24000 1217.000
45.32000 1245.000
45.40000 1299.000
45.48000 1181.000
45.56000 1233.000
45.64000 1197.000
45.72000 1248.000
45.80000 1211.000
45.88000 1171.000
45.96000 1239.000
46.04000 1149.000
46.12000 1244.000
46.20000 1156.000
46.28000 1150.000
46.36000 1164.000
46.44000 1184.000
46.52000 1208.000
46.60000 1169.000
46.68000 1130.000
46.76000 1192.000
46.84000 1172.000
46.92000 1157.000
47.00000 1167.000
47.08000 1160.000
47.16000 1144.000
47.24000 1156.000
47.32000 1176.000
47.40000 1217.000
47.48000 1153.000
47.56000 1145.000
47.64000 1122.000
47.72000 1157.000
47.80000 1144.000
47.88000 1157.000
47.96000 1102.000
48.04000 1086.000
48.12000 1127.000
48.20000 1130.000
48.28000 1113.000
48.36000 1119.000
48.44000 1140.000
48.52000 1098.000
48.60000 1045.000
48.68000 1090.000
48.76000 1122.000
48.84000 1164.000
48.92000 1076.000
49.00000 1122.000
49.08000 1090.000
49.16000 1116.000
49.24000 1196.000
49.32000 1296.000
49.40000 1685.000
49.48000 2286.000
49.56000 2453.000
49.64000 2318.000
49.72000 1976.000
49.80000 1449.000
49.88000 1237.000
49.96000 1157.000
50.04000 1081.000
50.12000 1066.000
50.20000 1059.000
50.28000 1039.000
50.36000 1048.000
50.44000 1003.000
50.52000 1019.000
50.60000 1029.000
50.68000 1130.000
50.76000 1129.000
50.84000 1022.000
50.92000 1054.000
51.00000 1019.000
51.08000 1052.000
51.16000 1029.000
51.24000 1067.000
51.32000 1051.000
51.40000 1018.000
51.48000 1055.000
51.56000 1062.000
51.64000 1045.000
51.72000 1038.000
51.80000 1031.000
51.88000 1046.000
51.96000 1071.000
52.04000 1073.000
52.12000 1055.000
52.20000 1071.000
52.28000 1002.000
52.36000 1029.000
52.44000 1104.000
52.52000 1039.000
52.60000 1058.000
52.68000 996.000
52.76000 1053.000
52.84000 1040.000
52.92000 1021.000
53.00000 1028.000
53.08000 979.000
53.16000 1010.000
53.24000 1071.000
53.32000 1069.000
53.40000 1067.000
53.48000 1022.000
53.56000 992.000
53.64000 1080.000
53.72000 1023.000
53.80000 1043.000
53.88000 1041.000
53.96000 967.000
54.04000 970.000
54.12000 1009.000
54.20000 997.000
54.28000 1080.000
54.36000 1050.000
54.44000 1012.000
54.52000 1052.000
54.60000 1035.000
54.68000 1005.000
54.76000 1049.000
54.84000 1016.000
54.92000 1068.000
55.00000 1008.000
55.08000 998.000
55.16000 1077.000
55.24000 1027.000
55.32000 961.000
55.40000 1060.000
55.48000 1015.000
55.56000 1023.000
55.64000 1000.000
55.72000 1050.000
55.80000 1019.000
55.88000 1089.000
55.96000 1064.000
56.04000 1058.000
56.12000 1035.000
56.20000 1017.000
56.28000 1023.000
56.36000 990.000
56.44000 1053.000
56.52000 1011.000
56.60000 984.000
56.68000 1053.000
56.76000 1002.000
56.84000 999.000
56.92000 991.000
57.00000 1036.000
57.08000 1031.000
57.16000 942.000
57.24000 996.000
57.32000 1020.000
57.40000 1019.000
57.48000 1022.000
57.56000 1024.000
57.64000 999.000
57.72000 1073.000
57.80000 1006.000
57.88000 1018.000
57.96000 990.000
58.04000 977.000
58.12000 1003.000
58.20000 999.000
58.28000 1016.000
58.36000 1069.000
58.44000 1052.000
58.52000 1058.000
58.60000 1029.000
58.68000 1040.000
58.76000 1043.000
58.84000 1034.000
58.92000 1017.000
59.00000 979.000
59.08000 1043.000
59.16000 965.000
59.24000 1005.000
59.32000 997.000
59.40000 1028.000
59.48000 1004.000
59.56000 981.000
59.64000 1008.000
59.72000 997.000
59.80000 993.000
59.88000 962.000
59.96000 1011.000
60.04000 1009.000
60.12000 1071.000
60.20000 985.000
60.28000 1022.000
60.36000 989.000
60.44000 1005.000
60.52000 1012.000
60.60000 950.000
60.68000 997.000
60.76000 979.000
60.84000 1040.000
60.92000 972.000
61.00000 980.000
61.08000 986.000
61.16000 1030.000
61.24000 970.000
61.32000 1039.000
61.40000 984.000
61.48000 1028.000
61.56000 1063.000
61.64000 1043.000
61.72000 1021.000
61.80000 1033.000
61.88000 1059.000
61.96000 994.000
62.04000 1017.000
62.12000 985.000
62.20000 962.000
62.28000 996.000
62.36000 975.000
62.44000 1050.000
62.52000 955.000
62.60000 995.000
62.68000 919.000
62.76000 1049.000
62.84000 1042.000
62.92000 948.000
63.00000 990.000
63.08000 969.000
63.16000 993.000
63.24000 1003.000
63.32000 999.000
63.40000 1050.000
63.48000 971.000
63.56000 974.000
63.64000 968.000
63.72000 979.000
63.80000 1012.000
63.88000 977.000
63.96000 931.000
64.04000 963.000
64.12000 934.000
64.20000 973.000
64.28000 989.000
64.36000 991.000
64.44000 977.000
64.52000 908.000
64.60000 985.000
64.68000 920.000
64.76000 917.000
64.84000 957.000
64.92000 988.000
65.00000 968.000
65.08000 909.000
65.16000 1010.000
65.24000 935.000
65.32000 931.000
65.40000 984.000
65.48000 984.000
65.56000 954.000
65.64000 949.000
65.72000 976.000
65.80000 1025.000
65.88000 1034.000
65.96000 1043.000
66.04000 1005.000
66.12000 1012.000
66.20000 1003.000
66.28000 1030.000
66.36000 963.000
66.44000 963.000
66.52000 845.000
66.60000 945.000
66.68000 871.000
66.76000 886.000
66.84000 900.000
66.92000 912.000
67.00000 858.000
67.08000 903.000
67.16000 894.000
67.24000 919.000
67.32000 908.000
67.40000 879.000
67.48000 846.000
67.56000 935.000
67.64000 938.000
67.72000 894.000
67.80000 898.000
67.88000 876.000
67.96000 860.000
68.04000 900.000
68.12000 900.000
68.20000 865.000
68.28000 821.000
68.36000 870.000
68.44000 903.000
68.52000 916.000
68.60000 847.000
68.68000 874.000
68.76000 919.000
68.84000 865.000
68.92000 835.000
69.00000 885.000
69.08000 850.000
69.16000 818.000
69.24000 862.000
69.32000 853.000
69.40000 836.000
69.48000 863.000
69.56000 874.000
69.64000 841.000
69.72000 852.000
69.80000 898.000
69.88000 850.000
69.92000 844.000