File: XRD/72.xy
5.00000 4882.000
5.08000 4830.000
5.16000 4644.000
5.24000 4701.000
5.32000 4545.000
5.40000 4428.000
5.48000 4369.000
5.56000 4251.000
5.64000 4186.000
5.72000 4151.000
5.80000 4109.000
5.88000 3973.000
5.96000 3974.000
6.04000 3953.000
6.12000 3904.000
6.20000 3936.000
6.28000 3838.000
6.36000 3794.000
6.44000 3709.000
6.52000 3565.000
6.60000 3524.000
6.68000 3483.000
6.76000 3506.000
6.84000 3452.000
6.92000 3365.000
7.00000 3331.000
7.08000 3254.000
7.16000 3288.000
7.24000 3239.000
7.32000 3221.000
7.40000 3253.000
7.48000 3017.000
7.56000 3056.000
7.64000 3054.000
7.72000 2957.000
7.80000 2910.000
7.88000 2865.000
7.96000 2930.000
8.04000 2871.000
8.12000 2837.000
8.20000 2876.000
8.28000 2886.000
8.36000 2825.000
8.44000 2755.000
8.52000 2746.000
8.60000 2708.000
8.68000 2581.000
8.76000 2535.000
8.84000 2624.000
8.92000 2604.000
9.00000 2573.000
9.08000 2565.000
9.16000 2427.000
9.24000 2402.000
9.32000 2493.000
9.40000 2479.000
9.48000 2479.000
9.56000 2367.000
9.64000 2281.000
9.72000 2413.000
9.80000 2348.000
9.88000 2418.000
9.96000 2256.000
10.04000 2276.000
10.12000 2166.000
10.20000 2314.000
10.28000 2201.000
10.36000 2211.000
10.44000 2264.000
10.52000 2222.000
10.60000 2212.000
10.68000 2191.000
10.76000 2144.000
10.84000 2147.000
10.92000 2078.000
11.00000 2208.000
11.08000 2136.000
11.16000 2119.000
11.24000 2165.000
11.32000 2085.000
11.40000 2094.000
11.48000 2036.000
11.56000 2146.000
11.64000 2071.000
11.72000 2056.000
11.80000 2085.000
11.88000 2153.000
11.96000 2144.000
12.04000 2261.000
12.12000 2277.000
12.20000 2259.000
12.28000 2178.000
12.36000 2067.000
12.44000 2004.000
12.52000 2117.000
12.60000 2061.000
12.68000 2173.000
12.76000 2298.000
12.84000 2279.000
12.92000 2269.000
13.00000 2191.000
13.08000 2099.000
13.16000 2101.000
13.24000 2054.000
13.32000 1990.000
13.40000 2082.000
13.48000 2071.000
13.56000 2052.000
13.64000 2107.000
13.72000 2113.000
13.80000 2043.000
13.88000 2129.000
13.96000 2057.000
14.04000 2010.000
14.12000 2187.000
14.20000 2123.000
14.28000 2100.000
14.36000 2177.000
14.44000 2102.000
14.52000 2054.000
14.60000 2170.000
14.68000 2175.000
14.76000 2134.000
14.84000 2271.000
14.92000 2304.000
15.00000 2431.000
15.08000 2489.000
15.16000 2465.000
15.24000 2260.000
15.32000 2183.000
15.40000 2144.000
15.48000 2142.000
15.56000 2180.000
15.64000 2204.000
15.72000 2112.000
15.80000 2051.000
15.88000 2125.000
15.96000 2135.000
16.04000 2175.000
16.12000 2124.000
16.20000 2128.000
16.28000 2195.000
16.36000 2223.000
16.44000 2158.000
16.52000 2118.000
16.60000 2248.000
16.68000 2413.000
16.76000 2420.000
16.84000 2473.000
16.92000 2591.000
17.00000 2452.000
17.08000 2519.000
17.16000 2394.000
17.24000 2399.000
17.32000 2297.000
17.40000 2353.000
17.48000 2338.000
17.56000 2273.000
17.64000 2354.000
17.72000 2418.000
17.80000 2398.000
17.88000 2543.000
17.96000 2554.000
18.04000 2745.000
18.12000 3160.000
18.20000 4021.000
18.28000 4575.000
18.36000 4955.000
18.44000 4469.000
18.52000 3827.000
18.60000 3187.000
18.68000 2812.000
18.76000 2635.000
18.84000 2693.000
18.92000 2684.000
19.00000 2770.000
19.08000 2828.000
19.16000 2980.000
19.24000 2913.000
19.32000 3036.000
19.40000 2790.000
19.48000 2819.000
19.56000 2744.000
19.64000 2752.000
19.72000 2778.000
19.80000 2895.000
19.88000 2705.000
19.96000 2785.000
20.04000 2909.000
20.12000 2751.000
20.20000 2876.000
20.28000 2858.000
20.36000 2996.000
20.44000 2937.000
20.52000 3003.000
20.60000 2900.000
20.68000 3041.000
20.76000 3041.000
20.84000 3063.000
20.92000 3185.000
21.00000 3105.000
21.08000 3210.000
21.16000 3130.000
21.24000 3222.000
21.32000 3154.000
21.40000 3163.000
21.48000 3267.000
21.56000 3192.000
21.64000 3156.000
21.72000 3150.000
21.80000 3116.000
21.88000 3208.000
21.96000 3220.000
22.04000 3258.000
22.12000 3193.000
22.20000 3242.000
22.28000 3247.000
22.36000 3302.000
22.44000 3222.000
22.52000 3248.000
22.60000 3266.000
22.68000 3299.000
22.76000 3313.000
22.84000 3304.000
22.92000 3263.000
23.00000 3365.000
23.08000 3387.000
23.16000 3347.000
23.24000 3353.000
23.32000 3548.000
23.40000 3422.000
23.48000 3407.000
23.56000 3432.000
23.64000 3562.000
23.72000 3570.000
23.80000 3682.000
23.88000 3680.000
23.96000 3696.000
24.04000 3695.000
24.12000 3599.000
24.20000 3815.000
24.28000 4059.000
24.36000 4384.000
24.44000 4953.000
24.52000 5469.000
24.60000 5307.000
24.68000 4908.000
24.76000 4523.000
24.84000 3994.000
24.92000 3791.000
25.00000 3853.000
25.08000 4022.000
25.16000 4370.000
25.24000 5464.000
25.32000 7426.000
25.40000 9792.000
25.48000 12007.000
25.56000 12585.000
25.64000 11058.000
25.72000 9102.000
25.80000 7270.000
25.88000 6145.000
25.96000 5264.000
26.04000 4696.000
26.12000 4306.000
26.20000 4253.000
26.28000 3963.000
26.36000 3782.000
26.44000 3540.000
26.52000 3353.000
26.60000 3310.000
26.68000 3280.000
26.76000 3319.000
26.84000 3347.000
26.92000 3421.000
27.00000 3420.000
27.08000 3350.000
27.16000 3275.000
27.24000 3292.000
27.32000 3361.000
27.40000 3330.000
27.48000 3381.000
27.56000 3519.000
27.64000 3404.000
27.72000 3273.000
27.80000 3303.000
27.88000 3214.000
27.96000 3179.000
28.04000 3197.000
28.12000 3125.000
28.20000 3096.000
28.28000 3079.000
28.36000 3123.000
28.44000 3062.000
28.52000 2989.000
28.60000 3094.000
28.68000 3043.000
28.76000 3041.000
28.84000 3001.000
28.92000 2988.000
29.00000 3081.000
29.08000 3105.000
29.16000 3010.000
29.24000 3098.000
29.32000 3140.000
29.40000 3015.000
29.48000 3025.000
29.56000 3368.000
29.64000 3389.000
29.72000 3613.000
29.80000 3833.000
29.88000 3880.000
29.96000 3506.000
30.04000 3384.000
30.12000 3033.000
30.20000 3012.000
30.28000 2973.000
30.36000 3286.000
30.44000 3731.000
30.52000 3811.000
30.60000 3760.000
30.68000 3578.000
30.76000 3250.000
30.84000 2996.000
30.92000 2817.000
31.00000 2784.000
31.08000 2754.000
31.16000 2683.000
31.24000 2622.000
31.32000 2608.000
31.40000 2519.000
31.48000 2547.000
31.56000 2541.000
31.64000 2517.000
31.72000 2515.000
31.80000 2457.000
31.88000 2536.000
31.96000 2464.000
32.04000 2490.000
32.12000 2436.000
32.20000 2527.000
32.28000 2369.000
32.36000 2412.000
32.44000 2417.000
32.52000 2430.000
32.60000 2442.000
32.68000 2372.000
32.76000 2436.000
32.84000 2324.000
32.92000 2301.000
33.00000 2289.000
33.08000 2351.000
33.16000 2299.000
33.24000 2169.000
33.32000 2169.000
33.40000 2215.000
33.48000 2160.000
33.56000 2144.000
33.64000 2175.000
33.72000 2148.000
33.80000 2091.000
33.88000 2177.000
33.96000 2048.000
34.04000 2099.000
34.12000 2046.000
34.20000 2048.000
34.28000 2009.000
34.36000 2017.000
34.44000 1984.000
34.52000 1943.000
34.60000 1930.000
34.68000 1937.000
34.76000 1828.000
34.84000 1817.000
34.92000 1910.000
35.00000 1885.000
35.08000 1851.000
35.16000 1814.000
35.24000 1879.000
35.32000 1862.000
35.40000 1813.000
35.48000 1830.000
35.56000 1819.000
35.64000 1860.000
35.72000 1789.000
35.80000 1796.000
35.88000 1722.000
35.96000 1733.000
36.04000 1732.000
36.12000 1731.000
36.20000 1660.000
36.28000 1700.000
36.36000 1668.000
36.44000 1678.000
36.52000 1641.000
36.60000 1610.000
36.68000 1607.000
36.76000 1620.000
36.84000 1627.000
36.92000 1606.000
37.00000 1573.000
37.08000 1586.000
37.16000 1554.000
37.24000 1568.000
37.32000 1571.000
37.40000 1528.000
37.48000 1514.000
37.56000 1558.000
37.64000 1471.000
37.72000 1518.000
37.80000 1546.000
37.88000 1537.000
37.96000 1477.000
38.04000 1484.000
38.12000 1478.000
38.20000 1402.000
38.28000 1469.000
38.36000 1449.000
38.44000 1401.000
38.52000 1431.000
38.60000 1445.000
38.68000 1510.000
38.76000 1460.000
38.84000 1492.000
38.92000 1485.000
39.00000 1558.000
39.08000 1527.000
39.16000 1715.000
39.24000 1893.000
39.32000 2113.000
39.40000 2036.000
39.48000 1854.000
39.56000 1394.000
39.64000 1461.000
39.72000 1464.000
39.80000 1491.000
39.88000 1477.000
39.96000 1440.000
40.04000 1497.000
40.12000 1446.000
40.20000 1503.000
40.28000 1513.000
40.36000 1433.000
40.44000 1390.000
40.52000 1365.000
40.60000 1452.000
40.68000 1474.000
40.76000 1526.000
40.84000 1395.000
40.92000 1429.000
41.00000 1402.000
41.08000 1378.000
41.16000 1470.000
41.24000 1424.000
41.32000 1423.000
41.40000 1405.000
41.48000 1475.000
41.56000 1461.000
41.64000 1445.000
41.72000 1432.000
41.80000 1403.000
41.88000 1391.000
41.96000 1462.000
42.04000 1480.000
42.12000 1511.000
42.20000 1493.000
42.28000 1455.000
42.36000 1519.000
42.44000 1524.000
42.52000 1593.000
42.60000 1653.000
42.68000 1627.000
42.76000 1662.000
42.84000 1661.000
42.92000 1736.000
43.00000 1697.000
43.08000 1828.000
43.16000 1648.000
43.24000 1628.000
43.32000 1523.000
43.40000 1497.000
43.48000 1437.000
43.56000 1412.000
43.64000 1395.000
43.72000 1369.000
43.80000 1361.000
43.88000 1416.000
43.96000 1382.000
44.04000 1309.000
44.12000 1370.000
44.20000 1345.000
44.28000 1393.000
44.36000 1326.000
44.44000 1342.000
44.52000 1339.000
44.60000 1357.000
44.68000 1367.000
44.76000 1336.000
44.84000 1361.000
44.92000 1329.000
45.00000 1358.000
45.08000 1339.000
45.16000 1320.000
45.24000 1323.000
45.32000 1342.000
45.40000 1313.000
45.48000 1369.000
45.56000 1317.000
45.64000 1332.000
45.72000 1303.000
45.80000 1370.000
45.88000 1298.000
45.96000 1318.000
46.04000 1380.000
46.12000 1340.000
46.20000 1276.000
46.28000 1293.000
46.36000 1314.000
46.44000 1333.000
46.52000 1412.000
46.60000 1360.000
46.68000 1369.000
46.76000 1390.000
46.84000 1271.000
46.92000 1266.000
47.00000 1287.000
47.08000 1281.000
47.16000 1295.000
47.24000 1271.000
47.32000 1268.000
47.40000 1313.000
47.48000 1295.000
47.56000 1256.000
47.64000 1314.000
47.72000 1272.000
47.80000 1265.000
47.88000 1343.000
47.96000 1261.000
48.04000 1244.000
48.12000 1234.000
48.20000 1238.000
48.28000 1294.000
48.36000 1221.000
48.44000 1261.000
48.52000 1222.000
48.60000 1272.000
48.68000 1274.000
48.76000 1211.000
48.84000 1271.000
48.92000 1246.000
49.00000 1242.000
49.08000 1211.000
49.16000 1240.000
49.24000 1187.000
49.32000 1177.000
49.40000 1184.000
49.48000 1187.000
49.56000 1221.000
49.64000 1232.000
49.72000 1198.000
49.80000 1215.000
49.88000 1186.000
49.96000 1272.000
50.04000 1166.000
50.12000 1257.000
50.20000 1241.000
50.28000 1327.000
50.36000 1215.000
50.44000 1276.000
50.52000 1235.000
50.60000 1294.000
50.68000 1261.000
50.76000 1223.000
50.84000 1331.000
50.92000 1286.000
51.00000 1219.000
51.08000 1197.000
51.16000 1196.000
51.24000 1231.000
51.32000 1229.000
51.40000 1182.000
51.48000 1177.000
51.56000 1155.000
51.64000 1196.000
51.72000 1211.000
51.80000 1219.000
51.88000 1290.000
51.96000 1223.000
52.04000 1292.000
52.12000 1292.000
52.20000 1343.000
52.28000 1596.000
52.36000 1753.000
52.44000 1873.000
52.52000 1909.000
52.60000 1900.000
52.68000 1636.000
52.76000 1506.000
52.84000 1413.000
52.92000 1296.000
53.00000 1284.000
53.08000 1237.000
53.16000 1279.000
53.24000 1261.000
53.32000 1206.000
53.40000 1240.000
53.48000 1196.000
53.56000 1196.000
53.64000 1210.000
53.72000 1153.000
53.80000 1119.000
53.88000 1196.000
53.96000 1178.000
54.04000 1165.000
54.12000 1184.000
54.20000 1196.000
54.28000 1177.000
54.36000 1170.000
54.44000 1142.000
54.52000 1133.000
54.60000 1138.000
54.68000 1147.000
54.76000 1157.000
54.84000 1095.000
54.92000 1099.000
55.00000 1108.000
55.08000 1147.000
55.16000 1161.000
55.24000 1139.000
55.32000 1154.000
55.40000 1094.000
55.48000 1089.000
55.56000 1152.000
55.64000 1179.000
55.72000 1065.000
55.80000 1122.000
55.88000 1136.000
55.96000 1148.000
56.04000 1125.000
56.12000 1215.000
56.20000 1158.000
56.28000 1163.000
56.36000 1158.000
56.44000 1156.000
56.52000 1200.000
56.60000 1160.000
56.68000 1124.000
56.76000 1154.000
56.84000 1096.000
56.92000 1187.000
57.00000 1166.000
57.08000 1166.000
57.16000 1197.000
57.24000 1189.000
57.32000 1147.000
57.40000 1117.000
57.48000 1153.000
57.56000 1081.000
57.64000 1110.000
57.72000 1166.000
57.80000 1055.000
57.88000 1152.000
57.96000 1134.000
58.04000 1153.000
58.12000 1111.000
58.20000 1124.000
58.28000 1107.000
58.36000 1185.000
58.44000 1191.000
58.52000 1124.000
58.60000 1128.000
58.68000 1113.000
58.76000 1105.000
58.84000 1142.000
58.92000 1123.000
59.00000 1129.000
59.08000 1069.000
59.16000 1157.000
59.24000 1132.000
59.32000 1177.000
59.40000 1190.000
59.48000 1110.000
59.56000 1111.000
59.64000 1168.000
59.72000 1160.000
59.80000 1132.000
59.88000 1113.000
59.96000 1092.000
60.04000 1094.000
60.12000 1130.000
60.20000 1160.000
60.28000 1106.000
60.36000 1089.000
60.44000 1154.000
60.52000 1151.000
60.60000 1129.000
60.68000 1183.000
60.76000 1173.000
60.84000 1138.000
60.92000 1088.000
61.00000 1174.000
61.08000 1143.000
61.16000 1142.000
61.24000 1169.000
61.32000 1132.000
61.40000 1111.000
61.48000 1172.000
61.56000 1127.000
61.64000 1138.000
61.72000 1063.000
61.80000 1161.000
61.88000 1132.000
61.96000 1155.000
62.04000 1135.000
62.12000 1143.000
62.20000 1087.000
62.28000 1188.000
62.36000 1131.000
62.44000 1085.000
62.52000 1175.000
62.60000 1160.000
62.68000 1144.000
62.76000 1150.000
62.84000 1039.000
62.92000 1105.000
63.00000 1151.000
63.08000 1101.000
63.16000 1175.000
63.24000 1119.000
63.32000 1089.000
63.40000 1129.000
63.48000 1064.000
63.56000 1106.000
63.64000 1153.000
63.72000 1074.000
63.80000 1161.000
63.88000 1106.000
63.96000 1073.000
64.04000 1114.000
64.12000 1069.000
64.20000 1112.000
64.28000 1141.000
64.36000 1125.000
64.44000 1044.000
64.52000 1113.000
64.60000 1057.000
64.68000 1053.000
64.76000 1109.000
64.84000 1068.000
64.92000 1117.000
65.00000 1050.000
65.08000 1059.000
65.16000 1071.000
65.24000 1018.000
65.32000 1120.000
65.40000 1121.000
65.48000 1088.000
65.56000 1015.000
65.64000 1028.000
65.72000 1074.000
65.80000 1026.000
65.88000 1101.000
65.96000 1074.000
66.04000 1067.000
66.12000 1031.000
66.20000 1087.000
66.28000 1079.000
66.36000 1074.000
66.44000 1029.000
66.52000 1010.000
66.60000 1052.000
66.68000 1035.000
66.76000 1031.000
66.84000 999.000
66.92000 1004.000
67.00000 1008.000
67.08000 991.000
67.16000 1007.000
67.24000 1046.000
67.32000 1025.000
67.40000 1009.000
67.48000 1006.000
67.56000 943.000
67.64000 1053.000
67.72000 1055.000
67.80000 1051.000
67.88000 1026.000
67.96000 1053.000
68.04000 1023.000
68.12000 1054.000
68.20000 1012.000
68.28000 1003.000
68.36000 971.000
68.44000 1068.000
68.52000 1029.000
68.60000 994.000
68.68000 969.000
68.76000 1033.000
68.84000 956.000
68.92000 928.000
69.00000 1011.000
69.08000 963.000
69.16000 1001.000
69.24000 950.000
69.32000 978.000
69.40000 998.000
69.48000 953.000
69.56000 985.000
69.64000 1006.000
69.72000 942.000
69.80000 1001.000
69.88000 962.000
69.92000 949.000