File: XRD/73.xy
5.00000 4806.000
5.08000 4651.000
5.16000 4787.000
5.24000 4649.000
5.32000 4560.000
5.40000 4359.000
5.48000 4328.000
5.56000 4188.000
5.64000 4135.000
5.72000 3993.000
5.80000 3994.000
5.88000 4088.000
5.96000 3852.000
6.04000 3758.000
6.12000 3799.000
6.20000 3839.000
6.28000 3679.000
6.36000 3576.000
6.44000 3498.000
6.52000 3461.000
6.60000 3427.000
6.68000 3399.000
6.76000 3383.000
6.84000 3385.000
6.92000 3316.000
7.00000 3251.000
7.08000 3157.000
7.16000 3202.000
7.24000 3285.000
7.32000 3044.000
7.40000 2959.000
7.48000 3012.000
7.56000 3092.000
7.64000 2934.000
7.72000 2905.000
7.80000 2905.000
7.88000 2830.000
7.96000 2866.000
8.04000 2934.000
8.12000 3045.000
8.20000 2990.000
8.28000 3094.000
8.36000 3011.000
8.44000 2836.000
8.52000 2711.000
8.60000 2586.000
8.68000 2574.000
8.76000 2503.000
8.84000 2513.000
8.92000 2516.000
9.00000 2512.000
9.08000 2512.000
9.16000 2408.000
9.24000 2495.000
9.32000 2422.000
9.40000 2352.000
9.48000 2396.000
9.56000 2332.000
9.64000 2395.000
9.72000 2303.000
9.80000 2319.000
9.88000 2251.000
9.96000 2311.000
10.04000 2285.000
10.12000 2229.000
10.20000 2232.000
10.28000 2230.000
10.36000 2178.000
10.44000 2258.000
10.52000 2047.000
10.60000 2156.000
10.68000 2093.000
10.76000 2105.000
10.84000 2140.000
10.92000 2157.000
11.00000 2148.000
11.08000 2111.000
11.16000 2096.000
11.24000 2054.000
11.32000 2090.000
11.40000 2043.000
11.48000 2067.000
11.56000 2045.000
11.64000 2146.000
11.72000 2097.000
11.80000 2038.000
11.88000 2198.000
11.96000 2176.000
12.04000 2144.000
12.12000 2183.000
12.20000 2185.000
12.28000 2111.000
12.36000 2098.000
12.44000 2184.000
12.52000 2304.000
12.60000 2463.000
12.68000 2559.000
12.76000 2693.000
12.84000 2546.000
12.92000 2297.000
13.00000 2109.000
13.08000 2065.000
13.16000 1979.000
13.24000 1942.000
13.32000 2024.000
13.40000 2039.000
13.48000 1991.000
13.56000 2048.000
13.64000 1959.000
13.72000 2080.000
13.80000 2035.000
13.88000 1972.000
13.96000 2058.000
14.04000 1993.000
14.12000 2088.000
14.20000 2064.000
14.28000 2076.000
14.36000 2073.000
14.44000 2110.000
14.52000 2110.000
14.60000 2154.000
14.68000 2137.000
14.76000 2031.000
14.84000 2196.000
14.92000 2095.000
15.00000 2139.000
15.08000 2064.000
15.16000 2120.000
15.24000 2049.000
15.32000 2194.000
15.40000 2135.000
15.48000 2172.000
15.56000 2188.000
15.64000 2067.000
15.72000 2136.000
15.80000 2226.000
15.88000 2201.000
15.96000 2203.000
16.04000 2308.000
16.12000 2180.000
16.20000 2334.000
16.28000 2311.000
16.36000 2319.000
16.44000 2611.000
16.52000 2826.000
16.60000 3015.000
16.68000 3030.000
16.76000 2750.000
16.84000 2597.000
16.92000 2263.000
17.00000 2355.000
17.08000 2372.000
17.16000 2417.000
17.24000 2340.000
17.32000 2420.000
17.40000 2360.000
17.48000 2447.000
17.56000 2468.000
17.64000 2471.000
17.72000 2506.000
17.80000 2392.000
17.88000 2445.000
17.96000 2418.000
18.04000 2472.000
18.12000 2538.000
18.20000 2545.000
18.28000 2603.000
18.36000 2520.000
18.44000 2555.000
18.52000 2498.000
18.60000 2613.000
18.68000 2663.000
18.76000 2595.000
18.84000 2777.000
18.92000 2593.000
19.00000 2785.000
19.08000 2635.000
19.16000 2737.000
19.24000 2713.000
19.32000 2889.000
19.40000 2772.000
19.48000 2798.000
19.56000 2816.000
19.64000 2951.000
19.72000 2909.000
19.80000 2953.000
19.88000 2871.000
19.96000 2893.000
20.04000 2924.000
20.12000 2997.000
20.20000 2942.000
20.28000 3040.000
20.36000 3052.000
20.44000 3028.000
20.52000 3030.000
20.60000 3083.000
20.68000 3264.000
20.76000 3215.000
20.84000 3243.000
20.92000 3236.000
21.00000 3324.000
21.08000 3445.000
21.16000 3309.000
21.24000 3254.000
21.32000 3223.000
21.40000 3241.000
21.48000 3303.000
21.56000 3152.000
21.64000 3232.000
21.72000 3179.000
21.80000 3270.000
21.88000 3292.000
21.96000 3368.000
22.04000 3357.000
22.12000 3408.000
22.20000 3346.000
22.28000 3416.000
22.36000 3412.000
22.44000 3342.000
22.52000 3321.000
22.60000 3389.000
22.68000 3458.000
22.76000 3392.000
22.84000 3542.000
22.92000 3325.000
23.00000 3384.000
23.08000 3351.000
23.16000 3497.000
23.24000 3405.000
23.32000 3405.000
23.40000 3447.000
23.48000 3437.000
23.56000 3621.000
23.64000 3674.000
23.72000 3662.000
23.80000 3662.000
23.88000 3555.000
23.96000 3679.000
24.04000 3789.000
24.12000 3872.000
24.20000 4060.000
24.28000 3863.000
24.36000 3817.000
24.44000 3693.000
24.52000 3448.000
24.60000 3602.000
24.68000 3654.000
24.76000 3839.000
24.84000 4547.000
24.92000 5570.000
25.00000 7201.000
25.08000 8095.000
25.16000 7788.000
25.24000 6636.000
25.32000 5242.000
25.40000 3990.000
25.48000 3777.000
25.56000 3734.000
25.64000 3899.000
25.72000 4117.000
25.80000 4057.000
25.88000 3825.000
25.96000 3667.000
26.04000 3434.000
26.12000 3257.000
26.20000 3336.000
26.28000 3265.000
26.36000 3170.000
26.44000 3358.000
26.52000 3291.000
26.60000 3289.000
26.68000 3353.000
26.76000 3224.000
26.84000 3255.000
26.92000 3399.000
27.00000 3439.000
27.08000 3314.000
27.16000 3585.000
27.24000 3913.000
27.32000 4425.000
27.40000 5129.000
27.48000 5558.000
27.56000 5409.000
27.64000 4771.000
27.72000 3956.000
27.80000 3550.000
27.88000 3425.000
27.96000 3341.000
28.04000 3281.000
28.12000 3127.000
28.20000 3114.000
28.28000 2995.000
28.36000 3006.000
28.44000 2830.000
28.52000 2962.000
28.60000 2968.000
28.68000 2995.000
28.76000 2821.000
28.84000 2997.000
28.92000 2955.000
29.00000 2888.000
29.08000 2959.000
29.16000 2916.000
29.24000 2877.000
29.32000 2951.000
29.40000 2963.000
29.48000 3076.000
29.56000 3393.000
29.64000 3414.000
29.72000 3461.000
29.80000 3313.000
29.88000 2951.000
29.96000 2812.000
30.04000 2822.000
30.12000 2742.000
30.20000 2782.000
30.28000 2716.000
30.36000 2671.000
30.44000 2674.000
30.52000 2556.000
30.60000 2634.000
30.68000 2542.000
30.76000 2684.000
30.84000 2643.000
30.92000 2735.000
31.00000 2526.000
31.08000 2661.000
31.16000 2550.000
31.24000 2582.000
31.32000 2572.000
31.40000 2576.000
31.48000 2521.000
31.56000 2558.000
31.64000 2520.000
31.72000 2581.000
31.80000 2510.000
31.88000 2581.000
31.96000 2609.000
32.04000 2597.000
32.12000 2593.000
32.20000 2777.000
32.28000 2822.000
32.36000 2867.000
32.44000 2693.000
32.52000 2685.000
32.60000 2542.000
32.68000 2473.000
32.76000 2467.000
32.84000 2469.000
32.92000 2326.000
33.00000 2383.000
33.08000 2428.000
33.16000 2420.000
33.24000 2394.000
33.32000 2132.000
33.40000 2189.000
33.48000 2197.000
33.56000 2223.000
33.64000 2242.000
33.72000 2097.000
33.80000 2125.000
33.88000 2055.000
33.96000 2056.000
34.04000 2034.000
34.12000 2080.000
34.20000 2035.000
34.28000 2012.000
34.36000 2047.000
34.44000 2031.000
34.52000 1943.000
34.60000 1949.000
34.68000 1947.000
34.76000 2000.000
34.84000 1936.000
34.92000 1907.000
35.00000 1922.000
35.08000 1878.000
35.16000 1865.000
35.24000 1868.000
35.32000 1905.000
35.40000 1800.000
35.48000 1792.000
35.56000 1800.000
35.64000 1782.000
35.72000 1747.000
35.80000 1752.000
35.88000 1758.000
35.96000 1754.000
36.04000 1756.000
36.12000 1645.000
36.20000 1646.000
36.28000 1721.000
36.36000 1716.000
36.44000 1659.000
36.52000 1672.000
36.60000 1685.000
36.68000 1616.000
36.76000 1760.000
36.84000 1658.000
36.92000 1585.000
37.00000 1661.000
37.08000 1644.000
37.16000 1595.000
37.24000 1487.000
37.32000 1547.000
37.40000 1484.000
37.48000 1562.000
37.56000 1510.000
37.64000 1488.000
37.72000 1600.000
37.80000 1466.000
37.88000 1480.000
37.96000 1491.000
38.04000 1447.000
38.12000 1446.000
38.20000 1496.000
38.28000 1468.000
38.36000 1475.000
38.44000 1506.000
38.52000 1537.000
38.60000 1468.000
38.68000 1550.000
38.76000 1551.000
38.84000 1447.000
38.92000 1449.000
39.00000 1499.000
39.08000 1585.000
39.16000 1656.000
39.24000 1755.000
39.32000 1782.000
39.40000 1634.000
39.48000 1584.000
39.56000 1475.000
39.64000 1412.000
39.72000 1425.000
39.80000 1461.000
39.88000 1420.000
39.96000 1414.000
40.04000 1413.000
40.12000 1454.000
40.20000 1487.000
40.28000 1416.000
40.36000 1393.000
40.44000 1437.000
40.52000 1373.000
40.60000 1459.000
40.68000 1429.000
40.76000 1449.000
40.84000 1459.000
40.92000 1415.000
41.00000 1453.000
41.08000 1400.000
41.16000 1389.000
41.24000 1389.000
41.32000 1467.000
41.40000 1372.000
41.48000 1354.000
41.56000 1357.000
41.64000 1403.000
41.72000 1382.000
41.80000 1433.000
41.88000 1484.000
41.96000 1515.000
42.04000 1520.000
42.12000 1535.000
42.20000 1467.000
42.28000 1484.000
42.36000 1478.000
42.44000 1480.000
42.52000 1589.000
42.60000 1581.000
42.68000 1609.000
42.76000 1630.000
42.84000 1616.000
42.92000 1642.000
43.00000 1605.000
43.08000 1494.000
43.16000 1365.000
43.24000 1416.000
43.32000 1426.000
43.40000 1359.000
43.48000 1399.000
43.56000 1407.000
43.64000 1382.000
43.72000 1349.000
43.80000 1400.000
43.88000 1391.000
43.96000 1374.000
44.04000 1493.000
44.12000 1310.000
44.20000 1352.000
44.28000 1439.000
44.36000 1350.000
44.44000 1449.000
44.52000 1349.000
44.60000 1325.000
44.68000 1353.000
44.76000 1319.000
44.84000 1322.000
44.92000 1347.000
45.00000 1326.000
45.08000 1329.000
45.16000 1364.000
45.24000 1356.000
45.32000 1301.000
45.40000 1313.000
45.48000 1361.000
45.56000 1393.000
45.64000 1482.000
45.72000 1477.000
45.80000 1567.000
45.88000 1506.000
45.96000 1474.000
46.04000 1389.000
46.12000 1321.000
46.20000 1333.000
46.28000 1313.000
46.36000 1329.000
46.44000 1360.000
46.52000 1382.000
46.60000 1260.000
46.68000 1294.000
46.76000 1312.000
46.84000 1278.000
46.92000 1292.000
47.00000 1261.000
47.08000 1290.000
47.16000 1268.000
47.24000 1269.000
47.32000 1280.000
47.40000 1234.000
47.48000 1192.000
47.56000 1231.000
47.64000 1158.000
47.72000 1221.000
47.80000 1281.000
47.88000 1248.000
47.96000 1186.000
48.04000 1288.000
48.12000 1288.000
48.20000 1255.000
48.28000 1203.000
48.36000 1277.000
48.44000 1255.000
48.52000 1313.000
48.60000 1412.000
48.68000 1481.000
48.76000 1563.000
48.84000 1426.000
48.92000 1450.000
49.00000 1266.000
49.08000 1261.000
49.16000 1199.000
49.24000 1203.000
49.32000 1204.000
49.40000 1181.000
49.48000 1222.000
49.56000 1129.000
49.64000 1172.000
49.72000 1298.000
49.80000 1160.000
49.88000 1217.000
49.96000 1210.000
50.04000 1228.000
50.12000 1231.000
50.20000 1178.000
50.28000 1196.000
50.36000 1215.000
50.44000 1141.000
50.52000 1275.000
50.60000 1236.000
50.68000 1198.000
50.76000 1248.000
50.84000 1163.000
50.92000 1186.000
51.00000 1192.000
51.08000 1171.000
51.16000 1135.000
51.24000 1241.000
51.32000 1262.000
51.40000 1251.000
51.48000 1393.000
51.56000 1491.000
51.64000 1663.000
51.72000 1603.000
51.80000 1453.000
51.88000 1334.000
51.96000 1234.000
52.04000 1187.000
52.12000 1192.000
52.20000 1149.000
52.28000 1098.000
52.36000 1214.000
52.44000 1162.000
52.52000 1169.000
52.60000 1102.000
52.68000 1178.000
52.76000 1215.000
52.84000 1122.000
52.92000 1147.000
53.00000 1106.000
53.08000 1191.000
53.16000 1228.000
53.24000 1173.000
53.32000 1173.000
53.40000 1150.000
53.48000 1160.000
53.56000 1089.000
53.64000 1140.000
53.72000 1135.000
53.80000 1116.000
53.88000 1129.000
53.96000 1162.000
54.04000 1092.000
54.12000 1122.000
54.20000 1132.000
54.28000 1137.000
54.36000 1121.000
54.44000 1189.000
54.52000 1200.000
54.60000 1208.000
54.68000 1143.000
54.76000 1179.000
54.84000 1144.000
54.92000 1173.000
55.00000 1154.000
55.08000 1204.000
55.16000 1145.000
55.24000 1120.000
55.32000 1114.000
55.40000 1229.000
55.48000 1148.000
55.56000 1206.000
55.64000 1166.000
55.72000 1146.000
55.80000 1110.000
55.88000 1107.000
55.96000 1144.000
56.04000 1058.000
56.12000 1148.000
56.20000 1191.000
56.28000 1142.000
56.36000 1142.000
56.44000 1132.000
56.52000 1126.000
56.60000 1063.000
56.68000 1185.000
56.76000 1174.000
56.84000 1262.000
56.92000 1220.000
57.00000 1238.000
57.08000 1176.000
57.16000 1130.000
57.24000 1129.000
57.32000 1119.000
57.40000 1148.000
57.48000 1210.000
57.56000 1117.000
57.64000 1187.000
57.72000 1179.000
57.80000 1090.000
57.88000 1135.000
57.96000 1122.000
58.04000 1151.000
58.12000 1165.000
58.20000 1157.000
58.28000 1165.000
58.36000 1127.000
58.44000 1147.000
58.52000 1205.000
58.60000 1148.000
58.68000 1143.000
58.76000 1129.000
58.84000 1125.000
58.92000 1112.000
59.00000 1078.000
59.08000 1144.000
59.16000 1190.000
59.24000 1108.000
59.32000 1167.000
59.40000 1198.000
59.48000 1095.000
59.56000 1230.000
59.64000 1106.000
59.72000 1182.000
59.80000 1102.000
59.88000 1076.000
59.96000 1124.000
60.04000 1109.000
60.12000 1105.000
60.20000 1093.000
60.28000 1119.000
60.36000 1152.000
60.44000 1155.000
60.52000 1069.000
60.60000 1055.000
60.68000 1108.000
60.76000 1134.000
60.84000 1115.000
60.92000 1135.000
61.00000 1173.000
61.08000 1141.000
61.16000 1068.000
61.24000 1062.000
61.32000 1115.000
61.40000 1164.000
61.48000 1119.000
61.56000 1143.000
61.64000 1100.000
61.72000 1138.000
61.80000 1160.000
61.88000 1067.000
61.96000 1179.000
62.04000 1107.000
62.12000 1099.000
62.20000 1106.000
62.28000 1111.000
62.36000 1153.000
62.44000 1059.000
62.52000 1177.000
62.60000 1109.000
62.68000 1126.000
62.76000 1180.000
62.84000 1109.000
62.92000 1112.000
63.00000 1120.000
63.08000 1106.000
63.16000 1051.000
63.24000 1133.000
63.32000 1122.000
63.40000 1099.000
63.48000 1115.000
63.56000 1098.000
63.64000 1146.000
63.72000 1125.000
63.80000 1147.000
63.88000 1094.000
63.96000 1143.000
64.04000 1184.000
64.12000 1149.000
64.20000 1079.000
64.28000 1163.000
64.36000 1185.000
64.44000 1273.000
64.52000 1198.000
64.60000 1093.000
64.68000 1139.000
64.76000 1113.000
64.84000 1123.000
64.92000 1082.000
65.00000 1057.000
65.08000 1095.000
65.16000 1066.000
65.24000 1051.000
65.32000 1058.000
65.40000 1046.000
65.48000 1069.000
65.56000 1065.000
65.64000 1118.000
65.72000 1097.000
65.80000 1058.000
65.88000 1054.000
65.96000 1087.000
66.04000 1063.000
66.12000 993.000
66.20000 1105.000
66.28000 1085.000
66.36000 1061.000
66.44000 1067.000
66.52000 1047.000
66.60000 1087.000
66.68000 1068.000
66.76000 1075.000
66.84000 1119.000
66.92000 1068.000
67.00000 1049.000
67.08000 1074.000
67.16000 1049.000
67.24000 1056.000
67.32000 1038.000
67.40000 971.000
67.48000 1042.000
67.56000 1018.000
67.64000 1071.000
67.72000 992.000
67.80000 1014.000
67.88000 1014.000
67.96000 996.000
68.04000 1043.000
68.12000 985.000
68.20000 984.000
68.28000 985.000
68.36000 1005.000
68.44000 995.000
68.52000 1064.000
68.60000 948.000
68.68000 986.000
68.76000 941.000
68.84000 992.000
68.92000 1019.000
69.00000 1041.000
69.08000 1023.000
69.16000 1057.000
69.24000 981.000
69.32000 1039.000
69.40000 1044.000
69.48000 1011.000
69.56000 1015.000
69.64000 980.000
69.72000 954.000
69.80000 967.000
69.88000 915.000
69.92000 930.000