File: XRD/74.xy
5.00000 4669.000
5.08000 4750.000
5.16000 4663.000
5.24000 4536.000
5.32000 4348.000
5.40000 4462.000
5.48000 4415.000
5.56000 4447.000
5.64000 4301.000
5.72000 4228.000
5.80000 4154.000
5.88000 4001.000
5.96000 4069.000
6.04000 3968.000
6.12000 3769.000
6.20000 3745.000
6.28000 3666.000
6.36000 3698.000
6.44000 3541.000
6.52000 3485.000
6.60000 3535.000
6.68000 3488.000
6.76000 3410.000
6.84000 3398.000
6.92000 3150.000
7.00000 3436.000
7.08000 3265.000
7.16000 3158.000
7.24000 3227.000
7.32000 3151.000
7.40000 3097.000
7.48000 3093.000
7.56000 3196.000
7.64000 3042.000
7.72000 3009.000
7.80000 2950.000
7.88000 2921.000
7.96000 2924.000
8.04000 2853.000
8.12000 2744.000
8.20000 2783.000
8.28000 2901.000
8.36000 3303.000
8.44000 3539.000
8.52000 3845.000
8.60000 3763.000
8.68000 3397.000
8.76000 2916.000
8.84000 2592.000
8.92000 2453.000
9.00000 2463.000
9.08000 2454.000
9.16000 2426.000
9.24000 2371.000
9.32000 2307.000
9.40000 2434.000
9.48000 2408.000
9.56000 2352.000
9.64000 2269.000
9.72000 2356.000
9.80000 2218.000
9.88000 2172.000
9.96000 2251.000
10.04000 2281.000
10.12000 2157.000
10.20000 2232.000
10.28000 2263.000
10.36000 2735.000
10.44000 3248.000
10.52000 3670.000
10.60000 3459.000
10.68000 3151.000
10.76000 2631.000
10.84000 2160.000
10.92000 2055.000
11.00000 1987.000
11.08000 2032.000
11.16000 2027.000
11.24000 1940.000
11.32000 1973.000
11.40000 1910.000
11.48000 1876.000
11.56000 1922.000
11.64000 1913.000
11.72000 1920.000
11.80000 1920.000
11.88000 1894.000
11.96000 1851.000
12.04000 1890.000
12.12000 1814.000
12.20000 1857.000
12.28000 1854.000
12.36000 1895.000
12.44000 1921.000
12.52000 1829.000
12.60000 1889.000
12.68000 1846.000
12.76000 1806.000
12.84000 1804.000
12.92000 1936.000
13.00000 2198.000
13.08000 2877.000
13.16000 3250.000
13.24000 3296.000
13.32000 2878.000
13.40000 2477.000
13.48000 2018.000
13.56000 1849.000
13.64000 1847.000
13.72000 1788.000
13.80000 1789.000
13.88000 1699.000
13.96000 1679.000
14.04000 1797.000
14.12000 1743.000
14.20000 1766.000
14.28000 1848.000
14.36000 1788.000
14.44000 1782.000
14.52000 1779.000
14.60000 1833.000
14.68000 1951.000
14.76000 1997.000
14.84000 1967.000
14.92000 2111.000
15.00000 2129.000
15.08000 1860.000
15.16000 2153.000
15.24000 2198.000
15.32000 2495.000
15.40000 3418.000
15.48000 5292.000
15.56000 7467.000
15.64000 8694.000
15.72000 7830.000
15.80000 5766.000
15.88000 3648.000
15.96000 2349.000
16.04000 2047.000
16.12000 2068.000
16.20000 2007.000
16.28000 2086.000
16.36000 1991.000
16.44000 2104.000
16.52000 2185.000
16.60000 2271.000
16.68000 2430.000
16.76000 2694.000
16.84000 3536.000
16.92000 6007.000
17.00000 9685.000
17.08000 13242.000
17.16000 14007.000
17.24000 11426.000
17.32000 7208.000
17.40000 3827.000
17.48000 2518.000
17.56000 2241.000
17.64000 2184.000
17.72000 2148.000
17.80000 2067.000
17.88000 2123.000
17.96000 2165.000
18.04000 2097.000
18.12000 2181.000
18.20000 2216.000
18.28000 2226.000
18.36000 2093.000
18.44000 2100.000
18.52000 2233.000
18.60000 2281.000
18.68000 2277.000
18.76000 2274.000
18.84000 2243.000
18.92000 2293.000
19.00000 2348.000
19.08000 2319.000
19.16000 2328.000
19.24000 2249.000
19.32000 2328.000
19.40000 2412.000
19.48000 2301.000
19.56000 2327.000
19.64000 2446.000
19.72000 2367.000
19.80000 2418.000
19.88000 2465.000
19.96000 2349.000
20.04000 2415.000
20.12000 2522.000
20.20000 2633.000
20.28000 2563.000
20.36000 2558.000
20.44000 2606.000
20.52000 2805.000
20.60000 3247.000
20.68000 4380.000
20.76000 6012.000
20.84000 7262.000
20.92000 7087.000
21.00000 6005.000
21.08000 4586.000
21.16000 3780.000
21.24000 3886.000
21.32000 3830.000
21.40000 3522.000
21.48000 3310.000
21.56000 3127.000
21.64000 2929.000
21.72000 2955.000
21.80000 2912.000
21.88000 2841.000
21.96000 2876.000
22.04000 2900.000
22.12000 2912.000
22.20000 2807.000
22.28000 2905.000
22.36000 2825.000
22.44000 2762.000
22.52000 3011.000
22.60000 2879.000
22.68000 2804.000
22.76000 2859.000
22.84000 2891.000
22.92000 2966.000
23.00000 2915.000
23.08000 3096.000
23.16000 3140.000
23.24000 3228.000
23.32000 3232.000
23.40000 3291.000
23.48000 3221.000
23.56000 3162.000
23.64000 3035.000
23.72000 3035.000
23.80000 3119.000
23.88000 3120.000
23.96000 3258.000
24.04000 3178.000
24.12000 3171.000
24.20000 3298.000
24.28000 3299.000
24.36000 3275.000
24.44000 3344.000
24.52000 3364.000
24.60000 3534.000
24.68000 3570.000
24.76000 3762.000
24.84000 3827.000
24.92000 3974.000
25.00000 4021.000
25.08000 4151.000
25.16000 4331.000
25.24000 4557.000
25.32000 5017.000
25.40000 5553.000
25.48000 7655.000
25.56000 13853.000
25.64000 32302.000
25.72000 64388.000
25.80000 96230.000
25.88000 106111.000
25.96000 88347.000
26.04000 55546.000
26.12000 25536.000
26.20000 10997.000
26.28000 7451.000
26.36000 5901.000
26.44000 5422.000
26.52000 5165.000
26.60000 5313.000
26.68000 5150.000
26.76000 4896.000
26.84000 4314.000
26.92000 3736.000
27.00000 3389.000
27.08000 3183.000
27.16000 3149.000
27.24000 3064.000
27.32000 2992.000
27.40000 2948.000
27.48000 2865.000
27.56000 2856.000
27.64000 2855.000
27.72000 2950.000
27.80000 3108.000
27.88000 2996.000
27.96000 3005.000
28.04000 2977.000
28.12000 3017.000
28.20000 2941.000
28.28000 2872.000
28.36000 2814.000
28.44000 2878.000
28.52000 2704.000
28.60000 2742.000
28.68000 2723.000
28.76000 2670.000
28.84000 2701.000
28.92000 2636.000
29.00000 2550.000
29.08000 2585.000
29.16000 2573.000
29.24000 2634.000
29.32000 2559.000
29.40000 2496.000
29.48000 2579.000
29.56000 2572.000
29.64000 2699.000
29.72000 2846.000
29.80000 2855.000
29.88000 2893.000
29.96000 2681.000
30.04000 2733.000
30.12000 2645.000
30.20000 2823.000
30.28000 3015.000
30.36000 3268.000
30.44000 3182.000
30.52000 3044.000
30.60000 2980.000
30.68000 2872.000
30.76000 3480.000
30.84000 3710.000
30.92000 4353.000
31.00000 4337.000
31.08000 4217.000
31.16000 3818.000
31.24000 3251.000
31.32000 2833.000
31.40000 3072.000
31.48000 3775.000
31.56000 5040.000
31.64000 6173.000
31.72000 6318.000
31.80000 5513.000
31.88000 4339.000
31.96000 3464.000
32.04000 3353.000
32.12000 3559.000
32.20000 3530.000
32.28000 3344.000
32.36000 3019.000
32.44000 2647.000
32.52000 2297.000
32.60000 2316.000
32.68000 2178.000
32.76000 2163.000
32.84000 2242.000
32.92000 2064.000
33.00000 2084.000
33.08000 2072.000
33.16000 2055.000
33.24000 2064.000
33.32000 1998.000
33.40000 2046.000
33.48000 2108.000
33.56000 2085.000
33.64000 2086.000
33.72000 2122.000
33.80000 2070.000
33.88000 2038.000
33.96000 2063.000
34.04000 2015.000
34.12000 1842.000
34.20000 1989.000
34.28000 1882.000
34.36000 1967.000
34.44000 1867.000
34.52000 2044.000
34.60000 2015.000
34.68000 2077.000
34.76000 2112.000
34.84000 2017.000
34.92000 1929.000
35.00000 1730.000
35.08000 1726.000
35.16000 1687.000
35.24000 1722.000
35.32000 1699.000
35.40000 1698.000
35.48000 1656.000
35.56000 1627.000
35.64000 1688.000
35.72000 1694.000
35.80000 1582.000
35.88000 1583.000
35.96000 1590.000
36.04000 1604.000
36.12000 1482.000
36.20000 1541.000
36.28000 1538.000
36.36000 1521.000
36.44000 1489.000
36.52000 1524.000
36.60000 1504.000
36.68000 1482.000
36.76000 1586.000
36.84000 1557.000
36.92000 1557.000
37.00000 1475.000
37.08000 1475.000
37.16000 1512.000
37.24000 1554.000
37.32000 1491.000
37.40000 1520.000
37.48000 1437.000
37.56000 1438.000
37.64000 1494.000
37.72000 1535.000
37.80000 1411.000
37.88000 1371.000
37.96000 1340.000
38.04000 1386.000
38.12000 1371.000
38.20000 1447.000
38.28000 1366.000
38.36000 1407.000
38.44000 1339.000
38.52000 1409.000
38.60000 1390.000
38.68000 1323.000
38.76000 1325.000
38.84000 1387.000
38.92000 1418.000
39.00000 1336.000
39.08000 1395.000
39.16000 1385.000
39.24000 1349.000
39.32000 1371.000
39.40000 1368.000
39.48000 1277.000
39.56000 1330.000
39.64000 1366.000
39.72000 1320.000
39.80000 1360.000
39.88000 1372.000
39.96000 1317.000
40.04000 1405.000
40.12000 1324.000
40.20000 1298.000
40.28000 1302.000
40.36000 1352.000
40.44000 1383.000
40.52000 1486.000
40.60000 1491.000
40.68000 1480.000
40.76000 1436.000
40.84000 1504.000
40.92000 1474.000
41.00000 1427.000
41.08000 1457.000
41.16000 1505.000
41.24000 1470.000
41.32000 1562.000
41.40000 1536.000
41.48000 1525.000
41.56000 1561.000
41.64000 1515.000
41.72000 1437.000
41.80000 1568.000
41.88000 1552.000
41.96000 1722.000
42.04000 1867.000
42.12000 2180.000
42.20000 2618.000
42.28000 4024.000
42.36000 7400.000
42.44000 11194.000
42.52000 14128.000
42.60000 13652.000
42.68000 10558.000
42.76000 6251.000
42.84000 3321.000
42.92000 2042.000
43.00000 1764.000
43.08000 1841.000
43.16000 1940.000
43.24000 2090.000
43.32000 2366.000
43.40000 2481.000
43.48000 2241.000
43.56000 2141.000
43.64000 2154.000
43.72000 2229.000
43.80000 2592.000
43.88000 2702.000
43.96000 2373.000
44.04000 2120.000
44.12000 1774.000
44.20000 1496.000
44.28000 1468.000
44.36000 1451.000
44.44000 1428.000
44.52000 1372.000
44.60000 1281.000
44.68000 1333.000
44.76000 1288.000
44.84000 1394.000
44.92000 1343.000
45.00000 1270.000
45.08000 1381.000
45.16000 1349.000
45.24000 1316.000
45.32000 1338.000
45.40000 1353.000
45.48000 1393.000
45.56000 1451.000
45.64000 1478.000
45.72000 1452.000
45.80000 1365.000
45.88000 1355.000
45.96000 1280.000
46.04000 1306.000
46.12000 1271.000
46.20000 1262.000
46.28000 1281.000
46.36000 1260.000
46.44000 1258.000
46.52000 1283.000
46.60000 1215.000
46.68000 1283.000
46.76000 1264.000
46.84000 1252.000
46.92000 1297.000
47.00000 1292.000
47.08000 1276.000
47.16000 1281.000
47.24000 1246.000
47.32000 1236.000
47.40000 1170.000
47.48000 1203.000
47.56000 1188.000
47.64000 1209.000
47.72000 1226.000
47.80000 1221.000
47.88000 1225.000
47.96000 1216.000
48.04000 1287.000
48.12000 1257.000
48.20000 1385.000
48.28000 1382.000
48.36000 1482.000
48.44000 1436.000
48.52000 1449.000
48.60000 1311.000
48.68000 1130.000
48.76000 1277.000
48.84000 1251.000
48.92000 1219.000
49.00000 1254.000
49.08000 1217.000
49.16000 1227.000
49.24000 1200.000
49.32000 1212.000
49.40000 1116.000
49.48000 1152.000
49.56000 1167.000
49.64000 1125.000
49.72000 1180.000
49.80000 1158.000
49.88000 1252.000
49.96000 1233.000
50.04000 1192.000
50.12000 1258.000
50.20000 1150.000
50.28000 1178.000
50.36000 1152.000
50.44000 1150.000
50.52000 1234.000
50.60000 1137.000
50.68000 1211.000
50.76000 1241.000
50.84000 1139.000
50.92000 1148.000
51.00000 1164.000
51.08000 1095.000
51.16000 1232.000
51.24000 1132.000
51.32000 1199.000
51.40000 1235.000
51.48000 1216.000
51.56000 1162.000
51.64000 1185.000
51.72000 1225.000
51.80000 1240.000
51.88000 1181.000
51.96000 1163.000
52.04000 1182.000
52.12000 1211.000
52.20000 1130.000
52.28000 1165.000
52.36000 1202.000
52.44000 1231.000
52.52000 1189.000
52.60000 1189.000
52.68000 1354.000
52.76000 1255.000
52.84000 1295.000
52.92000 1440.000
53.00000 1794.000
53.08000 2622.000
53.16000 3717.000
53.24000 4437.000
53.32000 4696.000
53.40000 4129.000
53.48000 2995.000
53.56000 2250.000
53.64000 1618.000
53.72000 1387.000
53.80000 1301.000
53.88000 1216.000
53.96000 1170.000
54.04000 1246.000
54.12000 1246.000
54.20000 1194.000
54.28000 1276.000
54.36000 1225.000
54.44000 1311.000
54.52000 1277.000
54.60000 1335.000
54.68000 1219.000
54.76000 1298.000
54.84000 1274.000
54.92000 1323.000
55.00000 1264.000
55.08000 1226.000
55.16000 1335.000
55.24000 1208.000
55.32000 1206.000
55.40000 1173.000
55.48000 1118.000
55.56000 1145.000
55.64000 1181.000
55.72000 1169.000
55.80000 1185.000
55.88000 1126.000
55.96000 1172.000
56.04000 1134.000
56.12000 1109.000
56.20000 1210.000
56.28000 1130.000
56.36000 1135.000
56.44000 1176.000
56.52000 1112.000
56.60000 1139.000
56.68000 1094.000
56.76000 1121.000
56.84000 1134.000
56.92000 1194.000
57.00000 1175.000
57.08000 1081.000
57.16000 1114.000
57.24000 1113.000
57.32000 1160.000
57.40000 1135.000
57.48000 1107.000
57.56000 1140.000
57.64000 1166.000
57.72000 1174.000
57.80000 1118.000
57.88000 1093.000
57.96000 1165.000
58.04000 1202.000
58.12000 1161.000
58.20000 1273.000
58.28000 1457.000
58.36000 1468.000
58.44000 1653.000
58.52000 1663.000
58.60000 1477.000
58.68000 1387.000
58.76000 1261.000
58.84000 1071.000
58.92000 1122.000
59.00000 1068.000
59.08000 1112.000
59.16000 1146.000
59.24000 1108.000
59.32000 1143.000
59.40000 1096.000
59.48000 1116.000
59.56000 1112.000
59.64000 1085.000
59.72000 1142.000
59.80000 1093.000
59.88000 1089.000
59.96000 1105.000
60.04000 1085.000
60.12000 1103.000
60.20000 1044.000
60.28000 1068.000
60.36000 1122.000
60.44000 1063.000
60.52000 1085.000
60.60000 1036.000
60.68000 1105.000
60.76000 1117.000
60.84000 1091.000
60.92000 1122.000
61.00000 1068.000
61.08000 1098.000
61.16000 1094.000
61.24000 1116.000
61.32000 1120.000
61.40000 1072.000
61.48000 1060.000
61.56000 1032.000
61.64000 1125.000
61.72000 1034.000
61.80000 1099.000
61.88000 1097.000
61.96000 1015.000
62.04000 1117.000
62.12000 1101.000
62.20000 1075.000
62.28000 1042.000
62.36000 1101.000
62.44000 1097.000
62.52000 1100.000
62.60000 1100.000
62.68000 1059.000
62.76000 1080.000
62.84000 1093.000
62.92000 1239.000
63.00000 1281.000
63.08000 1260.000
63.16000 1210.000
63.24000 1190.000
63.32000 1211.000
63.40000 1196.000
63.48000 1127.000
63.56000 1127.000
63.64000 1086.000
63.72000 1056.000
63.80000 1032.000
63.88000 1044.000
63.96000 1112.000
64.04000 1084.000
64.12000 1105.000
64.20000 1109.000
64.28000 1075.000
64.36000 1049.000
64.44000 1087.000
64.52000 1116.000
64.60000 1112.000
64.68000 1098.000
64.76000 1188.000
64.84000 1173.000
64.92000 1140.000
65.00000 1113.000
65.08000 1068.000
65.16000 1075.000
65.24000 1020.000
65.32000 1093.000
65.40000 1046.000
65.48000 1016.000
65.56000 1062.000
65.64000 1008.000
65.72000 1123.000
65.80000 1041.000
65.88000 1089.000
65.96000 1063.000
66.04000 1111.000
66.12000 1077.000
66.20000 1054.000
66.28000 1050.000
66.36000 1025.000
66.44000 1030.000
66.52000 1006.000
66.60000 972.000
66.68000 1016.000
66.76000 1069.000
66.84000 991.000
66.92000 1017.000
67.00000 1006.000
67.08000 1019.000
67.16000 932.000
67.24000 997.000
67.32000 986.000
67.40000 1049.000
67.48000 1005.000
67.56000 961.000
67.64000 966.000
67.72000 968.000
67.80000 1004.000
67.88000 1025.000
67.96000 977.000
68.04000 959.000
68.12000 1052.000
68.20000 1007.000
68.28000 1001.000
68.36000 996.000
68.44000 976.000
68.52000 1030.000
68.60000 1052.000
68.68000 977.000
68.76000 947.000
68.84000 976.000
68.92000 975.000
69.00000 1012.000
69.08000 905.000
69.16000 940.000
69.24000 971.000
69.32000 980.000
69.40000 942.000
69.48000 844.000
69.56000 977.000
69.64000 931.000
69.72000 940.000
69.80000 903.000
69.88000 1024.000
69.92000 952.000