File: XRD/8.xy
5.00000 676.000
5.04000 666.000
5.08000 698.000
5.12000 677.000
5.16000 643.000
5.20000 650.000
5.24000 610.000
5.28000 637.000
5.32000 614.000
5.36000 632.000
5.40000 622.000
5.44000 628.000
5.48000 616.000
5.52000 636.000
5.56000 614.000
5.60000 564.000
5.64000 608.000
5.68000 578.000
5.72000 556.000
5.76000 605.000
5.80000 555.000
5.84000 580.000
5.88000 564.000
5.92000 604.000
5.96000 535.000
6.00000 542.000
6.04000 486.000
6.08000 545.000
6.12000 519.000
6.16000 559.000
6.20000 479.000
6.24000 525.000
6.28000 497.000
6.32000 534.000
6.36000 472.000
6.40000 498.000
6.44000 504.000
6.48000 505.000
6.52000 491.000
6.56000 509.000
6.60000 491.000
6.64000 462.000
6.68000 476.000
6.72000 491.000
6.76000 483.000
6.80000 471.000
6.84000 495.000
6.88000 494.000
6.92000 458.000
6.96000 479.000
7.00000 444.000
7.04000 455.000
7.08000 428.000
7.12000 448.000
7.16000 477.000
7.20000 479.000
7.24000 434.000
7.28000 450.000
7.32000 463.000
7.36000 423.000
7.40000 429.000
7.44000 401.000
7.48000 432.000
7.52000 419.000
7.56000 421.000
7.60000 432.000
7.64000 434.000
7.68000 409.000
7.72000 419.000
7.76000 436.000
7.80000 417.000
7.84000 390.000
7.88000 384.000
7.92000 433.000
7.96000 378.000
8.00000 382.000
8.04000 391.000
8.08000 379.000
8.12000 391.000
8.16000 377.000
8.20000 365.000
8.24000 391.000
8.28000 375.000
8.32000 356.000
8.36000 384.000
8.40000 349.000
8.44000 377.000
8.48000 390.000
8.52000 358.000
8.56000 360.000
8.60000 382.000
8.64000 355.000
8.68000 370.000
8.72000 368.000
8.76000 347.000
8.80000 379.000
8.84000 388.000
8.88000 329.000
8.92000 371.000
8.96000 322.000
9.00000 362.000
9.04000 321.000
9.08000 344.000
9.12000 332.000
9.16000 326.000
9.20000 351.000
9.24000 334.000
9.28000 351.000
9.32000 349.000
9.36000 333.000
9.40000 335.000
9.44000 340.000
9.48000 380.000
9.52000 321.000
9.56000 339.000
9.60000 355.000
9.64000 309.000
9.68000 313.000
9.72000 347.000
9.76000 336.000
9.80000 319.000
9.84000 330.000
9.88000 334.000
9.92000 347.000
9.96000 302.000
10.00000 293.000
10.04000 324.000
10.08000 298.000
10.12000 273.000
10.16000 314.000
10.20000 325.000
10.24000 349.000
10.28000 332.000
10.32000 310.000
10.36000 348.000
10.40000 323.000
10.44000 302.000
10.48000 311.000
10.52000 289.000
10.56000 298.000
10.60000 329.000
10.64000 276.000
10.68000 297.000
10.72000 307.000
10.76000 310.000
10.80000 369.000
10.84000 322.000
10.88000 307.000
10.92000 298.000
10.96000 315.000
11.00000 316.000
11.04000 276.000
11.08000 301.000
11.12000 287.000
11.16000 314.000
11.20000 326.000
11.24000 319.000
11.28000 288.000
11.32000 282.000
11.36000 290.000
11.40000 301.000
11.44000 344.000
11.48000 281.000
11.52000 291.000
11.56000 296.000
11.60000 308.000
11.64000 324.000
11.68000 298.000
11.72000 309.000
11.76000 279.000
11.80000 312.000
11.84000 311.000
11.88000 301.000
11.92000 303.000
11.96000 288.000
12.00000 312.000
12.04000 296.000
12.08000 327.000
12.12000 290.000
12.16000 334.000
12.20000 304.000
12.24000 343.000
12.28000 298.000
12.32000 301.000
12.36000 299.000
12.40000 331.000
12.44000 337.000
12.48000 333.000
12.52000 342.000
12.56000 294.000
12.60000 387.000
12.64000 336.000
12.68000 335.000
12.72000 341.000
12.76000 362.000
12.80000 355.000
12.84000 355.000
12.88000 395.000
12.92000 377.000
12.96000 397.000
13.00000 397.000
13.04000 408.000
13.08000 473.000
13.12000 492.000
13.16000 516.000
13.20000 463.000
13.24000 479.000
13.28000 481.000
13.32000 446.000
13.36000 468.000
13.40000 454.000
13.44000 464.000
13.48000 463.000
13.52000 496.000
13.56000 524.000
13.60000 528.000
13.64000 616.000
13.68000 593.000
13.72000 631.000
13.76000 711.000
13.80000 746.000
13.84000 834.000
13.88000 895.000
13.92000 1124.000
13.96000 1171.000
14.00000 1201.000
14.04000 1222.000
14.08000 1304.000
14.12000 1467.000
14.16000 1607.000
14.20000 1897.000
14.24000 2222.000
14.28000 2792.000
14.32000 3446.000
14.36000 4606.000
14.40000 5915.000
14.44000 8186.000
14.48000 11649.000
14.52000 16537.000
14.56000 22489.000
14.60000 26092.000
14.64000 22430.000
14.68000 14502.000
14.72000 8704.000
14.76000 5171.000
14.80000 3408.000
14.84000 2426.000
14.88000 1756.000
14.92000 1367.000
14.96000 1179.000
15.00000 1079.000
15.04000 881.000
15.08000 819.000
15.12000 755.000
15.16000 660.000
15.20000 654.000
15.24000 605.000
15.28000 534.000
15.32000 519.000
15.36000 489.000
15.40000 429.000
15.44000 440.000
15.48000 446.000
15.52000 440.000
15.56000 414.000
15.60000 448.000
15.64000 370.000
15.68000 393.000
15.72000 350.000
15.76000 357.000
15.80000 358.000
15.84000 342.000
15.88000 321.000
15.92000 341.000
15.96000 305.000
16.00000 288.000
16.04000 288.000
16.08000 303.000
16.12000 280.000
16.16000 282.000
16.20000 309.000
16.24000 294.000
16.28000 275.000
16.32000 315.000
16.36000 272.000
16.40000 287.000
16.44000 253.000
16.48000 280.000
16.52000 313.000
16.56000 275.000
16.60000 258.000
16.64000 273.000
16.68000 266.000
16.72000 302.000
16.76000 236.000
16.80000 274.000
16.84000 239.000
16.88000 266.000
16.92000 259.000
16.96000 268.000
17.00000 258.000
17.04000 254.000
17.08000 248.000
17.12000 269.000
17.16000 234.000
17.20000 252.000
17.24000 283.000
17.28000 231.000
17.32000 248.000
17.36000 243.000
17.40000 237.000
17.44000 223.000
17.48000 268.000
17.52000 254.000
17.56000 268.000
17.60000 248.000
17.64000 255.000
17.68000 223.000
17.72000 238.000
17.76000 249.000
17.80000 237.000
17.84000 224.000
17.88000 260.000
17.92000 259.000
17.96000 251.000
18.00000 259.000
18.04000 240.000
18.08000 250.000
18.12000 210.000
18.16000 248.000
18.20000 282.000
18.24000 241.000
18.28000 248.000
18.32000 231.000
18.36000 245.000
18.40000 237.000
18.44000 240.000
18.48000 219.000
18.52000 224.000
18.56000 233.000
18.60000 251.000
18.64000 243.000
18.68000 254.000
18.72000 245.000
18.76000 208.000
18.80000 266.000
18.84000 235.000
18.88000 225.000
18.92000 242.000
18.96000 257.000
19.00000 202.000
19.04000 241.000
19.08000 249.000
19.12000 258.000
19.16000 253.000
19.20000 246.000
19.24000 245.000
19.28000 237.000
19.32000 256.000
19.36000 243.000
19.40000 220.000
19.44000 204.000
19.48000 220.000
19.52000 268.000
19.56000 269.000
19.60000 255.000
19.64000 228.000
19.68000 224.000
19.72000 249.000
19.76000 269.000
19.80000 227.000
19.84000 237.000
19.88000 226.000
19.92000 223.000
19.96000 275.000
20.00000 261.000
20.04000 264.000
20.08000 237.000
20.12000 271.000
20.16000 239.000
20.20000 265.000
20.24000 260.000
20.28000 266.000
20.32000 273.000
20.36000 269.000
20.40000 290.000
20.44000 289.000
20.48000 293.000
20.52000 332.000
20.56000 374.000
20.60000 403.000
20.64000 444.000
20.68000 514.000
20.72000 495.000
20.76000 419.000
20.80000 387.000
20.84000 326.000
20.88000 295.000
20.92000 279.000
20.96000 315.000
21.00000 265.000
21.04000 270.000
21.08000 282.000
21.12000 268.000
21.16000 248.000
21.20000 264.000
21.24000 258.000
21.28000 269.000
21.32000 274.000
21.36000 259.000
21.40000 294.000
21.44000 250.000
21.48000 263.000
21.52000 254.000
21.56000 235.000
21.60000 241.000
21.64000 221.000
21.68000 249.000
21.72000 265.000
21.76000 263.000
21.80000 258.000
21.84000 244.000
21.88000 256.000
21.92000 232.000
21.96000 236.000
22.00000 252.000
22.04000 263.000
22.08000 258.000
22.12000 283.000
22.16000 283.000
22.20000 225.000
22.24000 267.000
22.28000 242.000
22.32000 247.000
22.36000 242.000
22.40000 243.000
22.44000 264.000
22.48000 257.000
22.52000 258.000
22.56000 261.000
22.60000 259.000
22.64000 249.000
22.68000 244.000
22.72000 273.000
22.76000 266.000
22.80000 263.000
22.84000 254.000
22.88000 231.000
22.92000 231.000
22.96000 242.000
23.00000 265.000
23.04000 267.000
23.08000 243.000
23.12000 223.000
23.16000 254.000
23.20000 269.000
23.24000 247.000
23.28000 223.000
23.32000 258.000
23.36000 251.000
23.40000 227.000
23.44000 248.000
23.48000 243.000
23.52000 238.000
23.56000 249.000
23.60000 263.000
23.64000 256.000
23.68000 260.000
23.72000 252.000
23.76000 282.000
23.80000 250.000
23.84000 247.000
23.88000 207.000
23.92000 265.000
23.96000 277.000
24.00000 248.000
24.04000 231.000
24.08000 242.000
24.12000 214.000
24.16000 235.000
24.20000 236.000
24.24000 279.000
24.28000 240.000
24.32000 266.000
24.36000 262.000
24.40000 239.000
24.44000 257.000
24.48000 221.000
24.52000 222.000
24.56000 231.000
24.60000 259.000
24.64000 252.000
24.68000 218.000
24.72000 258.000
24.76000 249.000
24.80000 253.000
24.84000 245.000
24.88000 225.000
24.92000 252.000
24.96000 237.000
25.00000 230.000
25.04000 237.000
25.08000 227.000
25.12000 231.000
25.16000 234.000
25.20000 222.000
25.24000 255.000
25.28000 267.000
25.32000 262.000
25.36000 258.000
25.40000 260.000
25.44000 275.000
25.48000 250.000
25.52000 268.000
25.56000 245.000
25.60000 238.000
25.64000 223.000
25.68000 246.000
25.72000 233.000
25.76000 217.000
25.80000 239.000
25.84000 205.000
25.88000 226.000
25.92000 223.000
25.96000 218.000
26.00000 212.000
26.04000 212.000
26.08000 240.000
26.12000 231.000
26.16000 216.000
26.20000 193.000
26.24000 214.000
26.28000 238.000
26.32000 256.000
26.36000 247.000
26.40000 213.000
26.44000 267.000
26.48000 235.000
26.52000 227.000
26.56000 228.000
26.60000 250.000
26.64000 207.000
26.68000 219.000
26.72000 233.000
26.76000 212.000
26.80000 231.000
26.84000 237.000
26.88000 222.000
26.92000 203.000
26.96000 239.000
27.00000 219.000
27.04000 211.000
27.08000 232.000
27.12000 221.000
27.16000 218.000
27.20000 221.000
27.24000 226.000
27.28000 219.000
27.32000 217.000
27.36000 207.000
27.40000 217.000
27.44000 210.000
27.48000 219.000
27.52000 230.000
27.56000 194.000
27.60000 226.000
27.64000 201.000
27.68000 230.000
27.72000 227.000
27.76000 243.000
27.80000 225.000
27.84000 245.000
27.88000 238.000
27.92000 224.000
27.96000 214.000
28.00000 247.000
28.04000 228.000
28.08000 258.000
28.12000 272.000
28.16000 252.000
28.20000 262.000
28.24000 233.000
28.28000 236.000
28.32000 241.000
28.36000 243.000
28.40000 227.000
28.44000 244.000
28.48000 224.000
28.52000 243.000
28.56000 226.000
28.60000 252.000
28.64000 252.000
28.68000 247.000
28.72000 256.000
28.76000 247.000
28.80000 248.000
28.84000 245.000
28.88000 230.000
28.92000 263.000
28.96000 298.000
29.00000 346.000
29.04000 343.000
29.08000 426.000
29.12000 454.000
29.16000 581.000
29.20000 691.000
29.24000 856.000
29.28000 1132.000
29.32000 1507.000
29.36000 1893.000
29.40000 2487.000
29.44000 2861.000
29.48000 2821.000
29.52000 2543.000
29.56000 1762.000
29.60000 1254.000
29.64000 814.000
29.68000 540.000
29.72000 441.000
29.76000 377.000
29.80000 293.000
29.84000 285.000
29.88000 246.000
29.92000 264.000
29.96000 227.000
30.00000 252.000
30.04000 239.000
30.08000 234.000
30.12000 229.000
30.16000 234.000
30.20000 227.000
30.24000 234.000
30.28000 235.000
30.32000 241.000
30.36000 205.000
30.40000 202.000
30.44000 208.000
30.48000 220.000
30.52000 219.000
30.56000 197.000
30.60000 206.000
30.64000 203.000
30.68000 211.000
30.72000 192.000
30.76000 198.000
30.80000 203.000
30.84000 195.000
30.88000 207.000
30.92000 186.000
30.96000 203.000
31.00000 226.000
31.04000 184.000
31.08000 187.000
31.12000 185.000
31.16000 193.000
31.20000 173.000
31.24000 180.000
31.28000 170.000
31.32000 191.000
31.36000 204.000
31.40000 185.000
31.44000 212.000
31.48000 195.000
31.52000 188.000
31.56000 198.000
31.60000 181.000
31.64000 177.000
31.68000 174.000
31.72000 195.000
31.76000 161.000
31.80000 175.000
31.84000 170.000
31.88000 166.000
31.92000 167.000
31.96000 159.000
32.00000 146.000
32.04000 171.000
32.08000 164.000
32.12000 160.000
32.16000 194.000
32.20000 189.000
32.24000 196.000
32.28000 179.000
32.32000 181.000
32.36000 180.000
32.40000 171.000
32.44000 209.000
32.48000 179.000
32.52000 176.000
32.56000 216.000
32.60000 186.000
32.64000 196.000
32.68000 226.000
32.72000 243.000
32.76000 312.000
32.80000 381.000
32.84000 460.000
32.88000 548.000
32.92000 696.000
32.96000 837.000
33.00000 1102.000
33.04000 1205.000
33.08000 1002.000
33.12000 904.000
33.16000 695.000
33.20000 566.000
33.24000 344.000
33.28000 251.000
33.32000 242.000
33.36000 197.000
33.40000 194.000
33.44000 168.000
33.48000 169.000
33.52000 170.000
33.56000 148.000
33.60000 155.000
33.64000 147.000
33.68000 144.000
33.72000 125.000
33.76000 132.000
33.80000 146.000
33.84000 133.000
33.88000 138.000
33.92000 136.000
33.96000 114.000
34.00000 108.000
34.04000 138.000
34.08000 119.000
34.12000 127.000
34.16000 132.000
34.20000 122.000
34.24000 130.000
34.28000 127.000
34.32000 121.000
34.36000 133.000
34.40000 97.000
34.44000 127.000
34.48000 120.000
34.52000 118.000
34.56000 124.000
34.60000 137.000
34.64000 114.000
34.68000 100.000
34.72000 99.000
34.76000 97.000
34.80000 124.000
34.84000 110.000
34.88000 121.000
34.92000 141.000
34.96000 109.000
35.00000 114.000
35.04000 102.000
35.08000 125.000
35.12000 121.000
35.16000 105.000
35.20000 116.000
35.24000 103.000
35.28000 100.000
35.32000 109.000
35.36000 89.000
35.40000 94.000
35.44000 100.000
35.48000 118.000
35.52000 106.000
35.56000 104.000
35.60000 98.000
35.64000 121.000
35.68000 103.000
35.72000 100.000
35.76000 106.000
35.80000 98.000
35.84000 95.000
35.88000 114.000
35.92000 97.000
35.96000 107.000
36.00000 131.000
36.04000 134.000
36.08000 134.000
36.12000 142.000
36.16000 176.000
36.20000 202.000
36.24000 199.000
36.28000 266.000
36.32000 243.000
36.36000 243.000
36.40000 206.000
36.44000 185.000
36.48000 164.000
36.52000 133.000
36.56000 119.000
36.60000 97.000
36.64000 99.000
36.68000 113.000
36.72000 98.000
36.76000 97.000
36.80000 96.000
36.84000 98.000
36.88000 79.000
36.92000 109.000
36.96000 88.000
37.00000 77.000
37.04000 91.000
37.08000 85.000
37.12000 112.000
37.16000 78.000
37.20000 98.000
37.24000 99.000
37.28000 90.000
37.32000 90.000
37.36000 89.000
37.40000 76.000
37.44000 84.000
37.48000 85.000
37.52000 90.000
37.56000 91.000
37.60000 83.000
37.64000 87.000
37.68000 100.000
37.72000 73.000
37.76000 68.000
37.80000 94.000
37.84000 99.000
37.88000 94.000
37.92000 81.000
37.96000 87.000
38.00000 77.000
38.04000 66.000
38.08000 81.000
38.12000 84.000
38.16000 81.000
38.20000 80.000
38.24000 82.000
38.28000 98.000
38.32000 99.000
38.36000 63.000
38.40000 104.000
38.44000 91.000
38.48000 86.000
38.52000 67.000
38.56000 94.000
38.60000 99.000
38.64000 75.000
38.68000 89.000
38.72000 74.000
38.76000 68.000
38.80000 82.000
38.84000 79.000
38.88000 92.000
38.92000 69.000
38.96000 62.000
39.00000 77.000
39.04000 89.000
39.08000 75.000
39.12000 85.000
39.16000 80.000
39.20000 75.000
39.24000 71.000
39.28000 85.000
39.32000 81.000
39.36000 93.000
39.40000 78.000
39.44000 86.000
39.48000 76.000
39.52000 76.000
39.56000 94.000
39.60000 85.000
39.64000 67.000
39.68000 68.000
39.72000 86.000
39.76000 68.000
39.80000 79.000
39.84000 82.000
39.88000 79.000
39.92000 84.000
39.96000 89.000
40.00000 93.000
40.04000 84.000
40.08000 79.000
40.12000 79.000
40.16000 93.000
40.20000 84.000
40.24000 98.000
40.28000 74.000
40.32000 82.000
40.36000 89.000
40.40000 104.000
40.44000 94.000
40.48000 71.000
40.52000 96.000
40.56000 74.000
40.60000 74.000
40.64000 95.000
40.68000 88.000
40.72000 87.000
40.76000 68.000
40.80000 76.000
40.84000 74.000
40.88000 78.000
40.92000 75.000
40.96000 93.000
41.00000 68.000
41.04000 81.000
41.08000 69.000
41.12000 69.000
41.16000 83.000
41.20000 103.000
41.24000 83.000
41.28000 77.000
41.32000 90.000
41.36000 75.000
41.40000 84.000
41.44000 90.000
41.48000 81.000
41.52000 82.000
41.56000 74.000
41.60000 93.000
41.64000 87.000
41.68000 72.000
41.72000 77.000
41.76000 92.000
41.80000 106.000
41.84000 114.000
41.88000 108.000
41.92000 126.000
41.96000 132.000
42.00000 168.000
42.04000 205.000
42.08000 264.000
42.12000 300.000
42.16000 343.000
42.20000 375.000
42.24000 345.000
42.28000 273.000
42.32000 244.000
42.36000 170.000
42.40000 161.000
42.44000 115.000
42.48000 101.000
42.52000 89.000
42.56000 107.000
42.60000 94.000
42.64000 87.000
42.68000 98.000
42.72000 81.000
42.76000 90.000
42.80000 81.000
42.84000 73.000
42.88000 82.000
42.92000 75.000
42.96000 88.000
43.00000 74.000
43.04000 82.000
43.08000 80.000
43.12000 78.000
43.16000 66.000
43.20000 62.000
43.24000 72.000
43.28000 90.000
43.32000 64.000
43.36000 60.000
43.40000 73.000
43.44000 83.000
43.48000 81.000
43.52000 83.000
43.56000 64.000
43.60000 85.000
43.64000 76.000
43.68000 65.000
43.72000 70.000
43.76000 85.000
43.80000 71.000
43.84000 64.000
43.88000 66.000
43.92000 73.000
43.96000 68.000
44.00000 73.000
44.04000 78.000
44.08000 86.000
44.12000 76.000
44.16000 78.000
44.20000 86.000
44.24000 74.000
44.28000 94.000
44.32000 93.000
44.36000 82.000
44.40000 86.000
44.44000 92.000
44.48000 74.000
44.52000 89.000
44.56000 104.000
44.60000 107.000
44.64000 100.000
44.68000 128.000
44.72000 150.000
44.76000 157.000
44.80000 195.000
44.84000 181.000
44.88000 277.000
44.92000 233.000
44.96000 211.000
45.00000 173.000
45.04000 153.000
45.08000 119.000
45.12000 108.000
45.16000 115.000
45.20000 94.000
45.24000 96.000
45.28000 80.000
45.32000 81.000
45.36000 86.000
45.40000 90.000
45.44000 79.000
45.48000 56.000
45.52000 89.000
45.56000 73.000
45.60000 72.000
45.64000 92.000
45.68000 89.000
45.72000 66.000
45.76000 66.000
45.80000 75.000
45.84000 86.000
45.88000 60.000
45.92000 73.000
45.96000 73.000
46.00000 65.000
46.04000 87.000
46.08000 68.000
46.12000 65.000
46.16000 87.000
46.20000 80.000
46.24000 61.000
46.28000 57.000
46.32000 62.000
46.36000 82.000
46.40000 70.000
46.44000 99.000
46.48000 80.000
46.52000 91.000
46.56000 73.000
46.60000 61.000
46.64000 71.000
46.68000 67.000
46.72000 84.000
46.76000 84.000
46.80000 81.000
46.84000 80.000
46.88000 80.000
46.92000 68.000
46.96000 86.000
47.00000 90.000
47.04000 73.000
47.08000 85.000
47.12000 87.000
47.16000 90.000
47.20000 82.000
47.24000 97.000
47.28000 113.000
47.32000 113.000
47.36000 133.000
47.40000 168.000
47.44000 189.000
47.48000 141.000
47.52000 139.000
47.56000 144.000
47.60000 133.000
47.64000 108.000
47.68000 101.000
47.72000 87.000
47.76000 79.000
47.80000 77.000
47.84000 92.000
47.88000 90.000
47.92000 67.000
47.96000 73.000
48.00000 78.000
48.04000 63.000
48.08000 87.000
48.12000 66.000
48.16000 56.000
48.20000 83.000
48.24000 62.000
48.28000 68.000
48.32000 63.000
48.36000 82.000
48.40000 69.000
48.44000 78.000
48.48000 65.000
48.52000 68.000
48.56000 60.000
48.60000 57.000
48.64000 72.000
48.68000 64.000
48.72000 63.000
48.76000 79.000
48.80000 69.000
48.84000 74.000
48.88000 63.000
48.92000 78.000
48.96000 67.000
49.00000 75.000
49.04000 74.000
49.08000 71.000
49.12000 71.000
49.16000 64.000
49.20000 70.000
49.24000 62.000
49.28000 78.000
49.32000 75.000
49.36000 76.000
49.40000 70.000
49.44000 65.000
49.48000 57.000
49.52000 64.000
49.56000 61.000
49.60000 60.000
49.64000 81.000
49.68000 72.000
49.72000 66.000
49.76000 66.000
49.80000 54.000
49.84000 56.000
49.88000 71.000
49.92000 72.000
49.96000 83.000
50.00000 79.000
50.04000 51.000
50.08000 70.000
50.12000 69.000
50.16000 59.000
50.20000 72.000
50.24000 75.000
50.28000 75.000
50.32000 82.000
50.36000 67.000
50.40000 59.000
50.44000 58.000
50.48000 65.000
50.52000 62.000
50.56000 69.000
50.60000 74.000
50.64000 60.000
50.68000 64.000
50.72000 57.000
50.76000 80.000
50.80000 73.000
50.84000 66.000
50.88000 71.000
50.92000 65.000
50.96000 57.000
51.00000 65.000
51.04000 66.000
51.08000 71.000
51.12000 55.000
51.16000 74.000
51.20000 68.000
51.24000 63.000
51.28000 69.000
51.32000 74.000
51.36000 62.000
51.40000 65.000
51.44000 66.000
51.48000 65.000
51.52000 69.000
51.56000 70.000
51.60000 80.000
51.64000 61.000
51.68000 66.000
51.72000 57.000
51.76000 59.000
51.80000 79.000
51.84000 57.000
51.88000 82.000
51.92000 58.000
51.96000 84.000
52.00000 78.000
52.04000 63.000
52.08000 76.000
52.12000 66.000
52.16000 90.000
52.20000 101.000
52.24000 92.000
52.28000 99.000
52.32000 123.000
52.36000 97.000
52.40000 102.000
52.44000 87.000
52.48000 94.000
52.52000 72.000
52.56000 88.000
52.60000 61.000
52.64000 78.000
52.68000 67.000
52.72000 70.000
52.76000 61.000
52.80000 71.000
52.84000 66.000
52.88000 61.000
52.92000 60.000
52.96000 66.000
53.00000 59.000
53.04000 53.000
53.08000 62.000
53.12000 71.000
53.16000 66.000
53.20000 84.000
53.24000 60.000
53.28000 72.000
53.32000 68.000
53.36000 61.000
53.40000 69.000
53.44000 54.000
53.48000 79.000
53.52000 68.000
53.56000 68.000
53.60000 69.000
53.64000 70.000
53.68000 62.000
53.72000 84.000
53.76000 67.000
53.80000 58.000
53.84000 74.000
53.88000 66.000
53.92000 65.000
53.96000 54.000
54.00000 71.000
54.04000 62.000
54.08000 64.000
54.12000 75.000
54.16000 67.000
54.20000 49.000
54.24000 65.000
54.28000 71.000
54.32000 63.000
54.36000 53.000
54.40000 88.000
54.44000 93.000
54.48000 110.000
54.52000 116.000
54.56000 131.000
54.60000 146.000
54.64000 127.000
54.68000 125.000
54.72000 117.000
54.76000 129.000
54.80000 103.000
54.84000 91.000
54.88000 103.000
54.92000 52.000
54.96000 71.000
55.00000 77.000
55.04000 62.000
55.08000 69.000
55.12000 69.000
55.16000 67.000
55.20000 55.000
55.24000 61.000
55.28000 58.000
55.32000 51.000
55.36000 59.000
55.40000 59.000
55.44000 64.000
55.48000 58.000
55.52000 64.000
55.56000 66.000
55.60000 62.000
55.64000 74.000
55.68000 65.000
55.72000 69.000
55.76000 55.000
55.80000 48.000
55.84000 68.000
55.88000 62.000
55.92000 64.000
55.96000 46.000
56.00000 68.000
56.04000 56.000
56.08000 56.000
56.12000 58.000
56.16000 66.000
56.20000 59.000
56.24000 64.000
56.28000 64.000
56.32000 56.000
56.36000 68.000
56.40000 65.000
56.44000 62.000
56.48000 58.000
56.52000 71.000
56.56000 59.000
56.60000 70.000
56.64000 80.000
56.68000 81.000
56.72000 70.000
56.76000 89.000
56.80000 87.000
56.84000 79.000
56.88000 86.000
56.92000 97.000
56.96000 82.000
57.00000 82.000
57.04000 76.000
57.08000 87.000
57.12000 61.000
57.16000 70.000
57.20000 71.000
57.24000 62.000
57.28000 73.000
57.32000 51.000
57.36000 63.000
57.40000 49.000
57.44000 52.000
57.48000 57.000
57.52000 47.000
57.56000 75.000
57.60000 59.000
57.64000 61.000
57.68000 63.000
57.72000 69.000
57.76000 59.000
57.80000 62.000
57.84000 59.000
57.88000 63.000
57.92000 60.000
57.96000 51.000
58.00000 58.000
58.04000 55.000
58.08000 63.000
58.12000 52.000
58.16000 68.000
58.20000 60.000
58.24000 52.000
58.28000 59.000
58.32000 67.000
58.36000 63.000
58.40000 50.000
58.44000 53.000
58.48000 72.000
58.52000 47.000
58.56000 57.000
58.60000 61.000
58.64000 68.000
58.68000 46.000
58.72000 61.000
58.76000 60.000
58.80000 59.000
58.84000 65.000
58.88000 69.000
58.92000 61.000
58.96000 49.000
59.00000 59.000
59.04000 66.000
59.08000 62.000
59.12000 65.000
59.16000 52.000
59.20000 60.000
59.24000 58.000
59.28000 58.000
59.32000 60.000
59.36000 53.000
59.40000 63.000
59.44000 53.000
59.48000 45.000
59.52000 65.000
59.56000 67.000
59.60000 59.000
59.64000 61.000
59.68000 44.000
59.72000 58.000
59.76000 53.000
59.80000 53.000
59.84000 43.000
59.88000 54.000
59.92000 67.000