File: XRD/9.xy
5.00000 671.000
5.04000 631.000
5.08000 662.000
5.12000 659.000
5.16000 632.000
5.20000 649.000
5.24000 648.000
5.28000 647.000
5.32000 609.000
5.36000 642.000
5.40000 615.000
5.44000 618.000
5.48000 614.000
5.52000 649.000
5.56000 605.000
5.60000 686.000
5.64000 584.000
5.68000 569.000
5.72000 601.000
5.76000 562.000
5.80000 584.000
5.84000 566.000
5.88000 536.000
5.92000 617.000
5.96000 565.000
6.00000 568.000
6.04000 561.000
6.08000 553.000
6.12000 566.000
6.16000 521.000
6.20000 515.000
6.24000 544.000
6.28000 528.000
6.32000 534.000
6.36000 516.000
6.40000 488.000
6.44000 485.000
6.48000 526.000
6.52000 470.000
6.56000 487.000
6.60000 471.000
6.64000 525.000
6.68000 483.000
6.72000 521.000
6.76000 454.000
6.80000 490.000
6.84000 499.000
6.88000 455.000
6.92000 474.000
6.96000 433.000
7.00000 435.000
7.04000 451.000
7.08000 444.000
7.12000 475.000
7.16000 480.000
7.20000 461.000
7.24000 424.000
7.28000 436.000
7.32000 448.000
7.36000 442.000
7.40000 454.000
7.44000 437.000
7.48000 429.000
7.52000 425.000
7.56000 392.000
7.60000 384.000
7.64000 389.000
7.68000 420.000
7.72000 407.000
7.76000 452.000
7.80000 415.000
7.84000 404.000
7.88000 417.000
7.92000 403.000
7.96000 416.000
8.00000 434.000
8.04000 384.000
8.08000 384.000
8.12000 386.000
8.16000 377.000
8.20000 389.000
8.24000 362.000
8.28000 366.000
8.32000 364.000
8.36000 392.000
8.40000 397.000
8.44000 392.000
8.48000 351.000
8.52000 380.000
8.56000 413.000
8.60000 369.000
8.64000 397.000
8.68000 388.000
8.72000 349.000
8.76000 384.000
8.80000 347.000
8.84000 355.000
8.88000 330.000
8.92000 355.000
8.96000 367.000
9.00000 348.000
9.04000 380.000
9.08000 402.000
9.12000 324.000
9.16000 358.000
9.20000 327.000
9.24000 342.000
9.28000 358.000
9.32000 353.000
9.36000 368.000
9.40000 326.000
9.44000 340.000
9.48000 360.000
9.52000 381.000
9.56000 318.000
9.60000 328.000
9.64000 359.000
9.68000 329.000
9.72000 320.000
9.76000 348.000
9.80000 327.000
9.84000 308.000
9.88000 327.000
9.92000 306.000
9.96000 308.000
10.00000 313.000
10.04000 350.000
10.08000 311.000
10.12000 334.000
10.16000 310.000
10.20000 308.000
10.24000 333.000
10.28000 335.000
10.32000 307.000
10.36000 314.000
10.40000 300.000
10.44000 312.000
10.48000 341.000
10.52000 314.000
10.56000 343.000
10.60000 337.000
10.64000 314.000
10.68000 319.000
10.72000 308.000
10.76000 308.000
10.80000 287.000
10.84000 324.000
10.88000 304.000
10.92000 307.000
10.96000 279.000
11.00000 305.000
11.04000 306.000
11.08000 326.000
11.12000 297.000
11.16000 298.000
11.20000 297.000
11.24000 322.000
11.28000 305.000
11.32000 286.000
11.36000 285.000
11.40000 334.000
11.44000 330.000
11.48000 324.000
11.52000 319.000
11.56000 308.000
11.60000 316.000
11.64000 308.000
11.68000 307.000
11.72000 283.000
11.76000 322.000
11.80000 312.000
11.84000 311.000
11.88000 311.000
11.92000 313.000
11.96000 308.000
12.00000 328.000
12.04000 292.000
12.08000 322.000
12.12000 310.000
12.16000 338.000
12.20000 316.000
12.24000 324.000
12.28000 347.000
12.32000 340.000
12.36000 333.000
12.40000 333.000
12.44000 339.000
12.48000 334.000
12.52000 340.000
12.56000 360.000
12.60000 348.000
12.64000 344.000
12.68000 341.000
12.72000 378.000
12.76000 377.000
12.80000 387.000
12.84000 401.000
12.88000 374.000
12.92000 366.000
12.96000 392.000
13.00000 406.000
13.04000 398.000
13.08000 438.000
13.12000 422.000
13.16000 430.000
13.20000 438.000
13.24000 476.000
13.28000 469.000
13.32000 446.000
13.36000 430.000
13.40000 435.000
13.44000 470.000
13.48000 472.000
13.52000 477.000
13.56000 511.000
13.60000 451.000
13.64000 506.000
13.68000 544.000
13.72000 500.000
13.76000 574.000
13.80000 576.000
13.84000 596.000
13.88000 698.000
13.92000 722.000
13.96000 723.000
14.00000 867.000
14.04000 894.000
14.08000 941.000
14.12000 956.000
14.16000 921.000
14.20000 1046.000
14.24000 1102.000
14.28000 1277.000
14.32000 1479.000
14.36000 1775.000
14.40000 2252.000
14.44000 2762.000
14.48000 3672.000
14.52000 4872.000
14.56000 6712.000
14.60000 9700.000
14.64000 13030.000
14.68000 15052.000
14.72000 13006.000
14.76000 8717.000
14.80000 5387.000
14.84000 3573.000
14.88000 2433.000
14.92000 1935.000
14.96000 1417.000
15.00000 1159.000
15.04000 1046.000
15.08000 930.000
15.12000 853.000
15.16000 711.000
15.20000 651.000
15.24000 654.000
15.28000 586.000
15.32000 587.000
15.36000 524.000
15.40000 517.000
15.44000 517.000
15.48000 465.000
15.52000 438.000
15.56000 403.000
15.60000 390.000
15.64000 398.000
15.68000 347.000
15.72000 354.000
15.76000 389.000
15.80000 366.000
15.84000 336.000
15.88000 341.000
15.92000 320.000
15.96000 342.000
16.00000 311.000
16.04000 330.000
16.08000 302.000
16.12000 272.000
16.16000 271.000
16.20000 299.000
16.24000 293.000
16.28000 310.000
16.32000 294.000
16.36000 307.000
16.40000 304.000
16.44000 283.000
16.48000 281.000
16.52000 260.000
16.56000 263.000
16.60000 262.000
16.64000 277.000
16.68000 262.000
16.72000 267.000
16.76000 253.000
16.80000 262.000
16.84000 251.000
16.88000 285.000
16.92000 249.000
16.96000 265.000
17.00000 262.000
17.04000 277.000
17.08000 245.000
17.12000 243.000
17.16000 254.000
17.20000 255.000
17.24000 260.000
17.28000 258.000
17.32000 261.000
17.36000 260.000
17.40000 239.000
17.44000 254.000
17.48000 219.000
17.52000 264.000
17.56000 247.000
17.60000 241.000
17.64000 244.000
17.68000 241.000
17.72000 225.000
17.76000 248.000
17.80000 231.000
17.84000 227.000
17.88000 238.000
17.92000 233.000
17.96000 256.000
18.00000 229.000
18.04000 253.000
18.08000 249.000
18.12000 236.000
18.16000 230.000
18.20000 229.000
18.24000 242.000
18.28000 254.000
18.32000 242.000
18.36000 225.000
18.40000 231.000
18.44000 220.000
18.48000 258.000
18.52000 228.000
18.56000 250.000
18.60000 235.000
18.64000 231.000
18.68000 234.000
18.72000 240.000
18.76000 242.000
18.80000 242.000
18.84000 239.000
18.88000 254.000
18.92000 253.000
18.96000 239.000
19.00000 247.000
19.04000 267.000
19.08000 231.000
19.12000 241.000
19.16000 236.000
19.20000 233.000
19.24000 258.000
19.28000 251.000
19.32000 239.000
19.36000 239.000
19.40000 224.000
19.44000 268.000
19.48000 230.000
19.52000 254.000
19.56000 265.000
19.60000 252.000
19.64000 272.000
19.68000 252.000
19.72000 250.000
19.76000 252.000
19.80000 270.000
19.84000 247.000
19.88000 238.000
19.92000 223.000
19.96000 252.000
20.00000 258.000
20.04000 226.000
20.08000 265.000
20.12000 265.000
20.16000 234.000
20.20000 252.000
20.24000 245.000
20.28000 245.000
20.32000 238.000
20.36000 257.000
20.40000 259.000
20.44000 273.000
20.48000 305.000
20.52000 275.000
20.56000 300.000
20.60000 328.000
20.64000 338.000
20.68000 368.000
20.72000 412.000
20.76000 436.000
20.80000 484.000
20.84000 490.000
20.88000 389.000
20.92000 324.000
20.96000 298.000
21.00000 298.000
21.04000 289.000
21.08000 255.000
21.12000 263.000
21.16000 257.000
21.20000 263.000
21.24000 247.000
21.28000 276.000
21.32000 239.000
21.36000 247.000
21.40000 259.000
21.44000 259.000
21.48000 256.000
21.52000 265.000
21.56000 257.000
21.60000 232.000
21.64000 252.000
21.68000 240.000
21.72000 283.000
21.76000 245.000
21.80000 266.000
21.84000 266.000
21.88000 264.000
21.92000 242.000
21.96000 245.000
22.00000 291.000
22.04000 277.000
22.08000 248.000
22.12000 252.000
22.16000 254.000
22.20000 250.000
22.24000 248.000
22.28000 271.000
22.32000 269.000
22.36000 230.000
22.40000 278.000
22.44000 265.000
22.48000 285.000
22.52000 247.000
22.56000 255.000
22.60000 261.000
22.64000 248.000
22.68000 246.000
22.72000 253.000
22.76000 274.000
22.80000 253.000
22.84000 259.000
22.88000 262.000
22.92000 249.000
22.96000 268.000
23.00000 230.000
23.04000 260.000
23.08000 279.000
23.12000 257.000
23.16000 243.000
23.20000 267.000
23.24000 248.000
23.28000 258.000
23.32000 247.000
23.36000 255.000
23.40000 247.000
23.44000 251.000
23.48000 245.000
23.52000 308.000
23.56000 243.000
23.60000 239.000
23.64000 244.000
23.68000 267.000
23.72000 268.000
23.76000 259.000
23.80000 246.000
23.84000 238.000
23.88000 268.000
23.92000 270.000
23.96000 264.000
24.00000 258.000
24.04000 234.000
24.08000 225.000
24.12000 258.000
24.16000 297.000
24.20000 235.000
24.24000 255.000
24.28000 246.000
24.32000 255.000
24.36000 235.000
24.40000 250.000
24.44000 251.000
24.48000 240.000
24.52000 258.000
24.56000 229.000
24.60000 222.000
24.64000 261.000
24.68000 217.000
24.72000 239.000
24.76000 244.000
24.80000 240.000
24.84000 254.000
24.88000 241.000
24.92000 248.000
24.96000 238.000
25.00000 247.000
25.04000 239.000
25.08000 229.000
25.12000 253.000
25.16000 248.000
25.20000 254.000
25.24000 226.000
25.28000 266.000
25.32000 254.000
25.36000 231.000
25.40000 247.000
25.44000 276.000
25.48000 256.000
25.52000 260.000
25.56000 255.000
25.60000 253.000
25.64000 260.000
25.68000 244.000
25.72000 252.000
25.76000 243.000
25.80000 252.000
25.84000 236.000
25.88000 219.000
25.92000 249.000
25.96000 241.000
26.00000 228.000
26.04000 212.000
26.08000 223.000
26.12000 228.000
26.16000 232.000
26.20000 246.000
26.24000 215.000
26.28000 241.000
26.32000 225.000
26.36000 230.000
26.40000 232.000
26.44000 228.000
26.48000 236.000
26.52000 211.000
26.56000 236.000
26.60000 244.000
26.64000 235.000
26.68000 227.000
26.72000 230.000
26.76000 259.000
26.80000 247.000
26.84000 223.000
26.88000 215.000
26.92000 223.000
26.96000 240.000
27.00000 231.000
27.04000 261.000
27.08000 224.000
27.12000 223.000
27.16000 255.000
27.20000 221.000
27.24000 262.000
27.28000 242.000
27.32000 247.000
27.36000 217.000
27.40000 241.000
27.44000 211.000
27.48000 204.000
27.52000 231.000
27.56000 217.000
27.60000 237.000
27.64000 202.000
27.68000 231.000
27.72000 226.000
27.76000 221.000
27.80000 233.000
27.84000 258.000
27.88000 227.000
27.92000 208.000
27.96000 229.000
28.00000 228.000
28.04000 234.000
28.08000 217.000
28.12000 227.000
28.16000 241.000
28.20000 224.000
28.24000 218.000
28.28000 245.000
28.32000 235.000
28.36000 199.000
28.40000 215.000
28.44000 244.000
28.48000 251.000
28.52000 249.000
28.56000 232.000
28.60000 227.000
28.64000 224.000
28.68000 249.000
28.72000 208.000
28.76000 231.000
28.80000 222.000
28.84000 213.000
28.88000 226.000
28.92000 244.000
28.96000 255.000
29.00000 253.000
29.04000 223.000
29.08000 284.000
29.12000 279.000
29.16000 295.000
29.20000 294.000
29.24000 304.000
29.28000 334.000
29.32000 419.000
29.36000 431.000
29.40000 544.000
29.44000 679.000
29.48000 846.000
29.52000 1081.000
29.56000 1323.000
29.60000 1484.000
29.64000 1532.000
29.68000 1367.000
29.72000 980.000
29.76000 722.000
29.80000 503.000
29.84000 392.000
29.88000 328.000
29.92000 272.000
29.96000 246.000
30.00000 268.000
30.04000 244.000
30.08000 241.000
30.12000 233.000
30.16000 189.000
30.20000 236.000
30.24000 229.000
30.28000 216.000
30.32000 221.000
30.36000 209.000
30.40000 205.000
30.44000 223.000
30.48000 204.000
30.52000 221.000
30.56000 204.000
30.60000 218.000
30.64000 249.000
30.68000 221.000
30.72000 253.000
30.76000 242.000
30.80000 213.000
30.84000 234.000
30.88000 245.000
30.92000 205.000
30.96000 211.000
31.00000 204.000
31.04000 211.000
31.08000 209.000
31.12000 201.000
31.16000 211.000
31.20000 197.000
31.24000 209.000
31.28000 176.000
31.32000 217.000
31.36000 176.000
31.40000 197.000
31.44000 215.000
31.48000 208.000
31.52000 188.000
31.56000 188.000
31.60000 175.000
31.64000 176.000
31.68000 189.000
31.72000 169.000
31.76000 168.000
31.80000 172.000
31.84000 169.000
31.88000 191.000
31.92000 181.000
31.96000 188.000
32.00000 170.000
32.04000 174.000
32.08000 184.000
32.12000 183.000
32.16000 181.000
32.20000 149.000
32.24000 172.000
32.28000 148.000
32.32000 164.000
32.36000 168.000
32.40000 166.000
32.44000 143.000
32.48000 161.000
32.52000 168.000
32.56000 177.000
32.60000 164.000
32.64000 164.000
32.68000 198.000
32.72000 172.000
32.76000 172.000
32.80000 210.000
32.84000 199.000
32.88000 216.000
32.92000 244.000
32.96000 246.000
33.00000 301.000
33.04000 354.000
33.08000 411.000
33.12000 514.000
33.16000 647.000
33.20000 712.000
33.24000 751.000
33.28000 603.000
33.32000 549.000
33.36000 385.000
33.40000 273.000
33.44000 216.000
33.48000 191.000
33.52000 186.000
33.56000 154.000
33.60000 147.000
33.64000 146.000
33.68000 128.000
33.72000 155.000
33.76000 132.000
33.80000 149.000
33.84000 125.000
33.88000 142.000
33.92000 138.000
33.96000 118.000
34.00000 144.000
34.04000 124.000
34.08000 145.000
34.12000 136.000
34.16000 124.000
34.20000 137.000
34.24000 130.000
34.28000 134.000
34.32000 115.000
34.36000 132.000
34.40000 112.000
34.44000 117.000
34.48000 106.000
34.52000 130.000
34.56000 113.000
34.60000 116.000
34.64000 128.000
34.68000 132.000
34.72000 129.000
34.76000 87.000
34.80000 117.000
34.84000 111.000
34.88000 108.000
34.92000 118.000
34.96000 111.000
35.00000 124.000
35.04000 121.000
35.08000 107.000
35.12000 106.000
35.16000 119.000
35.20000 103.000
35.24000 105.000
35.28000 101.000
35.32000 98.000
35.36000 128.000
35.40000 120.000
35.44000 99.000
35.48000 111.000
35.52000 118.000
35.56000 77.000
35.60000 107.000
35.64000 105.000
35.68000 124.000
35.72000 97.000
35.76000 85.000
35.80000 107.000
35.84000 104.000
35.88000 101.000
35.92000 107.000
35.96000 120.000
36.00000 114.000
36.04000 117.000
36.08000 98.000
36.12000 109.000
36.16000 125.000
36.20000 128.000
36.24000 134.000
36.28000 133.000
36.32000 120.000
36.36000 162.000
36.40000 198.000
36.44000 240.000
36.48000 256.000
36.52000 234.000
36.56000 218.000
36.60000 204.000
36.64000 187.000
36.68000 161.000
36.72000 108.000
36.76000 128.000
36.80000 100.000
36.84000 107.000
36.88000 92.000
36.92000 92.000
36.96000 95.000
37.00000 98.000
37.04000 107.000
37.08000 89.000
37.12000 103.000
37.16000 94.000
37.20000 89.000
37.24000 104.000
37.28000 114.000
37.32000 74.000
37.36000 86.000
37.40000 79.000
37.44000 96.000
37.48000 85.000
37.52000 88.000
37.56000 85.000
37.60000 85.000
37.64000 110.000
37.68000 91.000
37.72000 90.000
37.76000 78.000
37.80000 68.000
37.84000 80.000
37.88000 77.000
37.92000 97.000
37.96000 70.000
38.00000 108.000
38.04000 91.000
38.08000 99.000
38.12000 90.000
38.16000 88.000
38.20000 74.000
38.24000 91.000
38.28000 79.000
38.32000 76.000
38.36000 91.000
38.40000 86.000
38.44000 110.000
38.48000 85.000
38.52000 84.000
38.56000 74.000
38.60000 86.000
38.64000 83.000
38.68000 73.000
38.72000 78.000
38.76000 90.000
38.80000 81.000
38.84000 97.000
38.88000 80.000
38.92000 90.000
38.96000 92.000
39.00000 88.000
39.04000 62.000
39.08000 91.000
39.12000 84.000
39.16000 77.000
39.20000 81.000
39.24000 67.000
39.28000 69.000
39.32000 67.000
39.36000 84.000
39.40000 84.000
39.44000 95.000
39.48000 74.000
39.52000 82.000
39.56000 83.000
39.60000 90.000
39.64000 75.000
39.68000 79.000
39.72000 84.000
39.76000 81.000
39.80000 72.000
39.84000 81.000
39.88000 72.000
39.92000 88.000
39.96000 87.000
40.00000 82.000
40.04000 94.000
40.08000 64.000
40.12000 81.000
40.16000 91.000
40.20000 77.000
40.24000 89.000
40.28000 84.000
40.32000 75.000
40.36000 75.000
40.40000 77.000
40.44000 80.000
40.48000 93.000
40.52000 77.000
40.56000 93.000
40.60000 77.000
40.64000 77.000
40.68000 67.000
40.72000 80.000
40.76000 84.000
40.80000 73.000
40.84000 88.000
40.88000 76.000
40.92000 88.000
40.96000 77.000
41.00000 72.000
41.04000 77.000
41.08000 78.000
41.12000 85.000
41.16000 73.000
41.20000 85.000
41.24000 59.000
41.28000 96.000
41.32000 77.000
41.36000 84.000
41.40000 82.000
41.44000 82.000
41.48000 61.000
41.52000 71.000
41.56000 74.000
41.60000 88.000
41.64000 96.000
41.68000 89.000
41.72000 97.000
41.76000 89.000
41.80000 74.000
41.84000 71.000
41.88000 94.000
41.92000 94.000
41.96000 90.000
42.00000 94.000
42.04000 95.000
42.08000 107.000
42.12000 128.000
42.16000 142.000
42.20000 147.000
42.24000 167.000
42.28000 182.000
42.32000 235.000
42.36000 296.000
42.40000 308.000
42.44000 312.000
42.48000 284.000
42.52000 226.000
42.56000 188.000
42.60000 158.000
42.64000 110.000
42.68000 112.000
42.72000 104.000
42.76000 95.000
42.80000 78.000
42.84000 76.000
42.88000 91.000
42.92000 83.000
42.96000 100.000
43.00000 68.000
43.04000 93.000
43.08000 67.000
43.12000 81.000
43.16000 88.000
43.20000 84.000
43.24000 69.000
43.28000 66.000
43.32000 84.000
43.36000 77.000
43.40000 80.000
43.44000 90.000
43.48000 70.000
43.52000 64.000
43.56000 71.000
43.60000 70.000
43.64000 79.000
43.68000 76.000
43.72000 92.000
43.76000 68.000
43.80000 74.000
43.84000 67.000
43.88000 74.000
43.92000 69.000
43.96000 71.000
44.00000 68.000
44.04000 73.000
44.08000 73.000
44.12000 69.000
44.16000 74.000
44.20000 60.000
44.24000 66.000
44.28000 82.000
44.32000 87.000
44.36000 81.000
44.40000 69.000
44.44000 77.000
44.48000 98.000
44.52000 83.000
44.56000 88.000
44.60000 101.000
44.64000 77.000
44.68000 73.000
44.72000 87.000
44.76000 87.000
44.80000 100.000
44.84000 99.000
44.88000 106.000
44.92000 113.000
44.96000 99.000
45.00000 129.000
45.04000 180.000
45.08000 155.000
45.12000 178.000
45.16000 202.000
45.20000 158.000
45.24000 157.000
45.28000 143.000
45.32000 122.000
45.36000 110.000
45.40000 102.000
45.44000 89.000
45.48000 84.000
45.52000 93.000
45.56000 84.000
45.60000 63.000
45.64000 74.000
45.68000 67.000
45.72000 77.000
45.76000 73.000
45.80000 78.000
45.84000 77.000
45.88000 87.000
45.92000 65.000
45.96000 78.000
46.00000 74.000
46.04000 84.000
46.08000 71.000
46.12000 80.000
46.16000 72.000
46.20000 94.000
46.24000 77.000
46.28000 76.000
46.32000 68.000
46.36000 60.000
46.40000 87.000
46.44000 66.000
46.48000 78.000
46.52000 55.000
46.56000 76.000
46.60000 59.000
46.64000 71.000
46.68000 70.000
46.72000 61.000
46.76000 63.000
46.80000 70.000
46.84000 66.000
46.88000 72.000
46.92000 78.000
46.96000 96.000
47.00000 83.000
47.04000 65.000
47.08000 79.000
47.12000 101.000
47.16000 77.000
47.20000 94.000
47.24000 60.000
47.28000 67.000
47.32000 86.000
47.36000 72.000
47.40000 96.000
47.44000 84.000
47.48000 99.000
47.52000 96.000
47.56000 100.000
47.60000 113.000
47.64000 153.000
47.68000 141.000
47.72000 150.000
47.76000 142.000
47.80000 124.000
47.84000 118.000
47.88000 108.000
47.92000 107.000
47.96000 115.000
48.00000 101.000
48.04000 100.000
48.08000 88.000
48.12000 82.000
48.16000 86.000
48.20000 77.000
48.24000 78.000
48.28000 66.000
48.32000 80.000
48.36000 74.000
48.40000 71.000
48.44000 72.000
48.48000 76.000
48.52000 69.000
48.56000 79.000
48.60000 65.000
48.64000 62.000
48.68000 71.000
48.72000 74.000
48.76000 76.000
48.80000 81.000
48.84000 87.000
48.88000 62.000
48.92000 69.000
48.96000 67.000
49.00000 75.000
49.04000 76.000
49.08000 75.000
49.12000 70.000
49.16000 65.000
49.20000 70.000
49.24000 66.000
49.28000 57.000
49.32000 84.000
49.36000 76.000
49.40000 70.000
49.44000 66.000
49.48000 73.000
49.52000 68.000
49.56000 71.000
49.60000 60.000
49.64000 74.000
49.68000 76.000
49.72000 81.000
49.76000 91.000
49.80000 72.000
49.84000 69.000
49.88000 73.000
49.92000 68.000
49.96000 64.000
50.00000 82.000
50.04000 68.000
50.08000 87.000
50.12000 72.000
50.16000 73.000
50.20000 86.000
50.24000 73.000
50.28000 79.000
50.32000 89.000
50.36000 82.000
50.40000 80.000
50.44000 88.000
50.48000 74.000
50.52000 71.000
50.56000 73.000
50.60000 72.000
50.64000 58.000
50.68000 60.000
50.72000 68.000
50.76000 70.000
50.80000 66.000
50.84000 72.000
50.88000 67.000
50.92000 53.000
50.96000 72.000
51.00000 73.000
51.04000 66.000
51.08000 69.000
51.12000 65.000
51.16000 78.000
51.20000 64.000
51.24000 76.000
51.28000 56.000
51.32000 54.000
51.36000 60.000
51.40000 68.000
51.44000 60.000
51.48000 69.000
51.52000 65.000
51.56000 66.000
51.60000 63.000
51.64000 79.000
51.68000 73.000
51.72000 65.000
51.76000 62.000
51.80000 60.000
51.84000 51.000
51.88000 66.000
51.92000 50.000
51.96000 70.000
52.00000 65.000
52.04000 65.000
52.08000 65.000
52.12000 68.000
52.16000 62.000
52.20000 70.000
52.24000 64.000
52.28000 74.000
52.32000 70.000
52.36000 65.000
52.40000 71.000
52.44000 84.000
52.48000 80.000
52.52000 71.000
52.56000 79.000
52.60000 91.000
52.64000 100.000
52.68000 89.000
52.72000 84.000
52.76000 95.000
52.80000 63.000
52.84000 67.000
52.88000 76.000
52.92000 65.000
52.96000 75.000
53.00000 84.000
53.04000 67.000
53.08000 53.000
53.12000 56.000
53.16000 53.000
53.20000 74.000
53.24000 61.000
53.28000 60.000
53.32000 53.000
53.36000 68.000
53.40000 66.000
53.44000 63.000
53.48000 61.000
53.52000 64.000
53.56000 65.000
53.60000 69.000
53.64000 62.000
53.68000 55.000
53.72000 59.000
53.76000 61.000
53.80000 50.000
53.84000 56.000
53.88000 62.000
53.92000 50.000
53.96000 40.000
54.00000 50.000
54.04000 75.000
54.08000 58.000
54.12000 58.000
54.16000 61.000
54.20000 61.000
54.24000 77.000
54.28000 74.000
54.32000 58.000
54.36000 64.000
54.40000 70.000
54.44000 67.000
54.48000 64.000
54.52000 79.000
54.56000 53.000
54.60000 65.000
54.64000 65.000
54.68000 61.000
54.72000 64.000
54.76000 82.000
54.80000 73.000
54.84000 84.000
54.88000 103.000
54.92000 109.000
54.96000 106.000
55.00000 110.000
55.04000 96.000
55.08000 88.000
55.12000 92.000
55.16000 92.000
55.20000 86.000
55.24000 66.000
55.28000 76.000
55.32000 62.000
55.36000 67.000
55.40000 69.000
55.44000 70.000
55.48000 67.000
55.52000 49.000
55.56000 59.000
55.60000 53.000
55.64000 57.000
55.68000 68.000
55.72000 66.000
55.76000 57.000
55.80000 53.000
55.84000 56.000
55.88000 61.000
55.92000 60.000
55.96000 65.000
56.00000 73.000
56.04000 59.000
56.08000 61.000
56.12000 73.000
56.16000 75.000
56.20000 68.000
56.24000 62.000
56.28000 69.000
56.32000 57.000
56.36000 55.000
56.40000 64.000
56.44000 72.000
56.48000 60.000
56.52000 63.000
56.56000 57.000
56.60000 54.000
56.64000 63.000
56.68000 61.000
56.72000 62.000
56.76000 47.000
56.80000 69.000
56.84000 63.000
56.88000 73.000
56.92000 65.000
56.96000 81.000
57.00000 68.000
57.04000 81.000
57.08000 64.000
57.12000 72.000
57.16000 84.000
57.20000 90.000
57.24000 86.000
57.28000 87.000
57.32000 81.000
57.36000 64.000
57.40000 74.000
57.44000 61.000
57.48000 60.000
57.52000 67.000
57.56000 56.000
57.60000 56.000
57.64000 59.000
57.68000 62.000
57.72000 56.000
57.76000 56.000
57.80000 72.000
57.84000 66.000
57.88000 49.000
57.92000 50.000
57.96000 69.000
58.00000 78.000
58.04000 56.000
58.08000 58.000
58.12000 52.000
58.16000 60.000
58.20000 44.000
58.24000 51.000
58.28000 40.000
58.32000 68.000
58.36000 66.000
58.40000 53.000
58.44000 61.000
58.48000 58.000
58.52000 64.000
58.56000 44.000
58.60000 74.000
58.64000 48.000
58.68000 60.000
58.72000 43.000
58.76000 67.000
58.80000 52.000
58.84000 51.000
58.88000 56.000
58.92000 35.000
58.96000 51.000
59.00000 55.000
59.04000 60.000
59.08000 53.000
59.12000 71.000
59.16000 45.000
59.20000 69.000
59.24000 56.000
59.28000 60.000
59.32000 53.000
59.36000 53.000
59.40000 60.000
59.44000 59.000
59.48000 66.000
59.52000 58.000
59.56000 61.000
59.60000 52.000
59.64000 57.000
59.68000 54.000
59.72000 49.000
59.76000 55.000
59.80000 61.000
59.84000 48.000
59.88000 56.000
59.92000 48.000