File: UV-Vis data/Transmission/1-FAPbI3.Sample.Raw.csv
nm, %T
1100, 84.3936
1098, 84.3229
1096, 84.2861
1094, 84.1581
1092, 84.1206
1090, 84.0538
1088, 83.9086
1086, 83.8711
1084, 83.7637
1082, 83.6736
1080, 83.5868
1078, 83.4988
1076, 83.3687
1074, 83.2892
1072, 83.1882
1070, 83.051
1068, 82.9764
1066, 82.8571
1064, 82.7117
1062, 82.6407
1060, 82.5212
1058, 82.3519
1056, 82.2366
1054, 82.0907
1052, 81.9559
1050, 81.8467
1048, 81.6899
1046, 81.5448
1044, 81.4388
1042, 81.2479
1040, 81.1204
1038, 80.9937
1036, 80.8453
1034, 80.7082
1032, 80.5595
1030, 80.3906
1028, 80.2874
1026, 80.1304
1024, 79.9716
1022, 79.8439
1020, 79.6674
1018, 79.514
1016, 79.3744
1014, 79.2016
1012, 79.0528
1010, 78.9176
1008, 78.7575
1006, 78.6041
1004, 78.4663
1002, 78.3128
1000, 78.1785
998, 78.0281
996, 77.8741
994, 77.7561
992, 77.5949
990, 77.4419
988, 77.3333
986, 77.1914
984, 77.0525
982, 76.932
980, 76.8078
978, 76.6691
976, 76.5389
974, 76.4079
972, 76.302
970, 76.1924
968, 76.0649
966, 75.9762
964, 75.8838
962, 75.7745
960, 75.6792
958, 75.5758
956, 75.4979
954, 75.4247
952, 75.3318
950, 75.259
948, 75.2073
946, 75.1374
944, 75.0758
942, 75.0317
940, 75.0038
938, 74.957
936, 74.9016
934, 74.8895
932, 74.8794
930, 74.8586
928, 74.8427
926, 74.8447
924, 74.8567
922, 74.872
920, 74.8787
918, 74.9129
916, 74.9391
914, 74.9837
912, 75.0255
910, 75.0761
908, 75.1341
906, 75.208
904, 75.2575
902, 75.345
900, 75.4555
898, 75.534
896, 75.6097
894, 75.7168
892, 75.8494
890, 75.9587
888, 76.0853
886, 76.2346
884, 76.351
882, 76.4784
880, 76.6237
878, 76.7692
876, 76.9123
874, 77.0457
872, 77.1749
870, 77.3165
868, 77.4569
866, 77.5829
864, 77.7027
862, 77.7865
860, 77.8617
858, 77.8617
856, 77.8617
854, 77.8617
852, 77.8617
850, 77.8617
848, 77.8617
846, 77.8617
844, 77.8617
842, 77.8617
840, 77.8617
838, 77.8617
836, 77.8617
834, 77.8617
832, 77.8617
830, 77.8617
828, 77.8617
826, 77.8617
824, 77.8617
822, 77.8617
820, 77.8617
818, 77.8617
816, 77.8617
814, 74.5555
812, 69.8445
810, 68.2444
808, 66.9339
806, 65.5696
804, 64.1152
802, 62.831
800, 61.527
798, 60.2727
796, 59.2672
794, 58.4618
792, 57.4493
790, 56.4415
788, 55.7093
786, 55.1704
784, 54.539
782, 53.8771
780, 53.1994
778, 52.5545
776, 52.1258
774, 51.7639
772, 51.313
770, 50.8221
768, 50.4189
766, 50.1462
764, 49.8226
762, 49.4619
760, 49.0825
758, 48.817
756, 48.5263
754, 48.1879
752, 47.9232
750, 47.6239
748, 47.3198
746, 47.0761
744, 46.8069
742, 46.5026
740, 46.1596
738, 45.7312
736, 45.4783
734, 45.2471
732, 44.8771
730, 44.5519
728, 44.2953
726, 43.9844
724, 43.6205
722, 43.2353
720, 42.8823
718, 42.4964
716, 42.114
714, 41.7288
712, 41.3437
710, 40.9733
708, 40.5949
706, 40.181
704, 39.829
702, 39.5055
700, 39.1293
698, 38.7195
696, 38.3281
694, 37.9153
692, 37.4529
690, 36.9778
688, 36.646
686, 36.3774
684, 36.1166
682, 35.8711
680, 35.6335
678, 35.4211
676, 35.1664
674, 34.8579
672, 34.5099
670, 34.187
668, 33.8156
666, 33.4499
664, 33.1375
662, 32.817
660, 32.5451
658, 32.3186
656, 32.0865
654, 31.8391
652, 31.6149
650, 31.3585
648, 31.0894
646, 30.8007
644, 30.4886
642, 30.1895
640, 29.8757
638, 29.5029
636, 29.1047
634, 28.7637
632, 28.4438
630, 28.1351
628, 27.8606
626, 27.5937
624, 27.3364
622, 27.111
620, 26.888
618, 26.6488
616, 26.4253
614, 26.2185
612, 25.9966
610, 25.763
608, 25.5351
606, 25.3084
604, 25.0615
602, 24.822
600, 24.5951
598, 24.3679
596, 24.1776
594, 23.9759
592, 23.7785
590, 23.598
588, 23.4203
586, 23.2578
584, 23.078
582, 22.905
580, 22.7039
578, 22.498
576, 22.2754
574, 22.0069
572, 21.7421
570, 21.4681
568, 21.2035
566, 20.9386
564, 20.6576
562, 20.3746
560, 20.159
558, 19.9845
556, 19.7883
554, 19.611
552, 19.4572
550, 19.3488
548, 19.2602
546, 19.2032
544, 19.1643
542, 19.1405
540, 19.1122
538, 19.083
536, 19.0429
534, 18.9947
532, 18.9387
530, 18.8637
528, 18.755
526, 18.644
524, 18.5411
522, 18.4162
520, 18.278
518, 18.1508
516, 18.0076
514, 17.8536
512, 17.6832
510, 17.5062
508, 17.3288
506, 17.1483
504, 16.995
502, 16.8603
500, 16.776
498, 16.7384
496, 16.7192
494, 16.7331
492, 16.7546
490, 16.7589
488, 16.7788
486, 16.7885
484, 16.7691
482, 16.7448
480, 16.7051
478, 16.6653
476, 16.6441
474, 16.5986
472, 16.5356
470, 16.4839
468, 16.433
466, 16.3719
464, 16.3099
462, 16.2409
460, 16.1744
458, 16.0916
456, 15.9903
454, 15.9054
452, 15.7767
450, 15.5842
448, 15.3755
446, 15.1495
444, 14.8674
442, 14.5202
440, 14.1049
438, 13.6357
436, 13.0969
434, 12.4792
432, 11.8052
430, 11.057
428, 10.2695
426, 9.431525
424, 8.553773
422, 7.716025
420, 6.847652
418, 5.995442
416, 5.191220
414, 4.406075
412, 3.720849
410, 3.090739
408, 2.478333
406, 1.947170
404, 1.468700
402, 1.062244
400, 0.733473
398, 0.450640
396, 0.249032
394, 0.103715
392, 0.076616
390, 0.068667
388, 0.017905
386, 0.019859
384, 0.060100
382, 0.057294
380, 0.052513
378, 0.052513
376, 0.052513
374, 0.052513
372, 0.052513
370, 0.052513
368, 0.052513
366, 0.052513
364, 0.052513
362, 0.052513
360, 0.052513
358, 0.052513
356, 0.052513
354, 0.052513
352, 0.052513
350, 0.052513
348, 0.052513
346, 0.052513
344, 0.052513
342, 0.052513
340, 0.052513
338, 0.052513
336, 0.052513
334, 0.052513
332, 0.052513
330, 0.052513
328, 0.052513
326, 0.052513
324, 0.052513
322, 0.052513
320, 0.052513
318, 0.052513
316, 0.052513
314, 0.052513
312, 0.052513
310, 0.052513
308, 0.052513
306, 0.052513
304, 0.052513
302, 0.052513
300, 0.052513