File: UV-Vis data/Transmission/10-1FAPbI3-9MAPbBr3.Sample.Raw.csv
nm, %T
1200, 80.2699
1198, 80.1925
1196, 80.1184
1194, 80.0595
1192, 79.9757
1190, 79.9124
1188, 79.8399
1186, 79.7603
1184, 79.679
1182, 79.5981
1180, 79.543
1178, 79.4729
1176, 79.4005
1174, 79.3127
1172, 79.2233
1170, 79.1545
1168, 79.1107
1166, 79.0306
1164, 78.9794
1162, 78.8675
1160, 78.8251
1158, 78.7611
1156, 78.6718
1154, 78.6277
1152, 78.5377
1150, 78.4774
1148, 78.416
1146, 78.3607
1144, 78.3113
1142, 78.2545
1140, 78.1584
1138, 78.1034
1136, 78.0558
1134, 77.9932
1132, 77.9352
1130, 77.8687
1128, 77.8674
1126, 77.8061
1124, 77.7388
1122, 77.6945
1120, 77.6076
1118, 77.5691
1116, 77.5089
1114, 77.4595
1112, 77.4211
1110, 77.3929
1108, 77.347
1106, 77.2873
1104, 77.2312
1102, 77.1856
1100, 77.1296
1098, 77.1232
1096, 77.0885
1094, 77.022
1092, 76.9838
1090, 76.9441
1088, 76.909
1086, 76.8743
1084, 76.836
1082, 76.7877
1080, 76.7773
1078, 76.7516
1076, 76.7181
1074, 76.6822
1072, 76.6519
1070, 76.647
1068, 76.6248
1066, 76.6105
1064, 76.5851
1062, 76.5657
1060, 76.5375
1058, 76.5482
1056, 76.5267
1054, 76.517
1052, 76.4992
1050, 76.4938
1048, 76.4757
1046, 76.4667
1044, 76.4651
1042, 76.4727
1040, 76.4645
1038, 76.4987
1036, 76.4807
1034, 76.4945
1032, 76.4986
1030, 76.5001
1028, 76.5193
1026, 76.5331
1024, 76.5382
1022, 76.5463
1020, 76.5705
1018, 76.6143
1016, 76.6267
1014, 76.6434
1012, 76.6794
1010, 76.6981
1008, 76.7133
1006, 76.7405
1004, 76.7803
1002, 76.8157
1000, 76.8431
998, 76.8854
996, 76.9319
994, 76.9766
992, 77.0297
990, 77.0877
988, 77.1129
986, 77.1579
984, 77.2281
982, 77.2899
980, 77.3478
978, 77.41
976, 77.4751
974, 77.5384
972, 77.6059
970, 77.6671
968, 77.7291
966, 77.8
964, 77.8741
962, 77.9445
960, 78.0104
958, 78.0989
956, 78.1921
954, 78.2638
952, 78.3498
950, 78.4434
948, 78.5327
946, 78.617
944, 78.7061
942, 78.8094
940, 78.9014
938, 79.0067
936, 79.106
934, 79.1902
932, 79.2989
930, 79.4093
928, 79.5151
926, 79.6169
924, 79.7195
922, 79.8348
920, 79.9577
918, 80.0741
916, 80.1894
914, 80.2921
912, 80.3928
910, 80.5106
908, 80.6205
906, 80.7234
904, 80.8556
902, 80.9621
900, 81.0713
898, 81.2139
896, 81.3214
894, 81.4144
892, 81.5233
890, 81.6174
888, 81.7166
886, 81.8268
884, 81.9382
882, 82.0391
880, 82.155
878, 82.2608
876, 82.3621
874, 82.4806
872, 82.5666
870, 82.6693
868, 82.7564
866, 82.8368
864, 82.8936
862, 82.991
860, 83.051
858, 83.051
856, 83.051
854, 83.051
852, 83.051
850, 83.051
848, 83.051
846, 83.051
844, 83.051
842, 83.051
840, 83.051
838, 83.051
836, 83.051
834, 83.051
832, 83.051
830, 83.051
828, 83.051
826, 83.051
824, 83.051
822, 83.051
820, 83.051
818, 83.051
816, 83.051
814, 83.051
812, 83.051
810, 83.051
808, 83.051
806, 83.051
804, 83.051
802, 83.051
800, 83.051
798, 83.051
796, 83.051
794, 83.051
792, 83.051
790, 83.051
788, 83.051
786, 83.051
784, 83.051
782, 83.051
780, 83.051
778, 83.051
776, 83.051
774, 83.051
772, 83.051
770, 83.051
768, 83.051
766, 83.051
764, 83.051
762, 83.051
760, 83.051
758, 83.051
756, 83.051
754, 83.051
752, 83.051
750, 83.051
748, 83.051
746, 83.051
744, 83.051
742, 83.051
740, 83.051
738, 83.051
736, 83.051
734, 83.051
732, 83.051
730, 83.051
728, 83.051
726, 83.051
724, 83.051
722, 83.051
720, 83.051
718, 83.051
716, 83.051
714, 83.051
712, 83.051
710, 83.051
708, 83.051
706, 83.051
704, 83.051
702, 83.051
700, 83.051
698, 83.051
696, 83.051
694, 83.051
692, 83.051
690, 83.051
688, 83.051
686, 83.051
684, 83.051
682, 83.051
680, 83.051
678, 83.051
676, 83.051
674, 83.051
672, 83.051
670, 83.051
668, 83.051
666, 84.0981
664, 84.7074
662, 84.7396
660, 84.7874
658, 84.7508
656, 84.7611
654, 84.8193
652, 84.854
650, 84.8657
648, 84.91
646, 84.9321
644, 84.9052
642, 84.9668
640, 85.0672
638, 78.3428
636, 74.8966
634, 75.0807
632, 75.3532
630, 75.6699
628, 75.8704
626, 76.0951
624, 76.3648
622, 76.6133
620, 76.7561
618, 76.9643
616, 77.2068
614, 77.4131
612, 77.4343
610, 77.5576
608, 77.6139
606, 77.7176
604, 77.7261
602, 77.6856
600, 77.5462
598, 77.3406
596, 77.0595
594, 76.7872
592, 76.407
590, 75.9286
588, 75.2883
586, 74.4415
584, 73.4646
582, 72.1707
580, 70.0464
578, 68.43
576, 66.5304
574, 63.8094
572, 60.3443
570, 56.1031
568, 50.9138
566, 44.8187
564, 37.7965
562, 30.1779
560, 22.4614
558, 15.9224
556, 11.2144
554, 8.251586
552, 6.654186
550, 5.945235
548, 5.762823
546, 5.852580
544, 6.145105
542, 6.494212
540, 6.871900
538, 7.226224
536, 7.524369
534, 7.756549
532, 7.948087
530, 8.105393
528, 8.221388
526, 8.292458
524, 8.339866
522, 8.355362
520, 8.380276
518, 8.403182
516, 8.425076
514, 8.439583
512, 8.413320
510, 8.354953
508, 8.278987
506, 8.166052
504, 7.972899
502, 7.711506
500, 7.355271
498, 6.977799
496, 6.527550
494, 5.758805
492, 4.552629
490, 3.270912
488, 2.163958
486, 2.164617
484, 3.516112
482, 4.512193
480, 4.667620
478, 4.591472
476, 4.525940
474, 4.472620
472, 4.368605
470, 4.322980
468, 4.228358
466, 4.169096
464, 4.028846
462, 3.864783
460, 4.004109
458, 4.230029
456, 4.444828
454, 4.725613
452, 5.007237
450, 5.650372
448, 6.564138
446, 6.629774
444, 6.298152
442, 6.068901
440, 5.942601
438, 5.806493
436, 5.713378
434, 5.630015
432, 5.561028
430, 5.443445
428, 5.387061
426, 5.335983
424, 5.227888
422, 5.227985
420, 5.227985
418, 5.227985
416, 5.227985
414, 5.227985
412, 5.227985
410, 5.227985
408, 5.227985
406, 5.227985
404, 5.227985
402, 5.227985
400, 5.227985
398, 5.227985
396, 5.227985
394, 5.227985
392, 5.227985
390, 5.227985
388, 5.227985
386, 5.227985
384, 5.227985
382, 5.227985
380, 5.227985
378, 5.227985
376, 5.227985
374, 5.227985
372, 5.227985
370, 5.227985
368, 5.227985
366, 5.227985
364, 5.227985
362, 5.227985
360, 5.227985
358, 5.227985
356, 5.227985
354, 5.227985
352, 5.227985
350, 5.227985
348, 5.227985
346, 5.227985
344, 5.227985
342, 5.227985
340, 5.227985
338, 5.227985
336, 5.227985
334, 5.227985
332, 5.227985
330, 5.227985
328, 5.227985
326, 5.227985
324, 5.227985
322, 5.227985
320, 5.227985
318, 5.227985
316, 5.227985
314, 5.227985
312, 5.227985
310, 5.227985
308, 5.227985
306, 5.227985
304, 5.227985
302, 5.227985
300, 5.227985