File: UV-Vis data/Transmission/2-FAPbI3 MAPbBr3 9-1.Sample.Raw.csv
nm, %T
1100, 88.4971
1098, 88.3891
1096, 88.2881
1094, 88.1026
1092, 87.9665
1090, 87.8489
1088, 87.6432
1086, 87.5012
1084, 87.3581
1082, 87.1412
1080, 86.9507
1078, 86.8034
1076, 86.5487
1074, 86.3439
1072, 86.1502
1070, 85.9051
1068, 85.6885
1066, 85.4682
1064, 85.1933
1062, 84.986
1060, 84.7052
1058, 84.4207
1056, 84.1782
1054, 83.8771
1052, 83.6209
1050, 83.3546
1048, 83.0378
1046, 82.7357
1044, 82.4634
1042, 82.1185
1040, 81.8165
1038, 81.5204
1036, 81.2159
1034, 80.9116
1032, 80.6106
1030, 80.2652
1028, 79.9733
1026, 79.663
1024, 79.3242
1022, 79.0146
1020, 78.6908
1018, 78.3425
1016, 78.037
1014, 77.6721
1012, 77.3619
1010, 77.0472
1008, 76.7164
1006, 76.3912
1004, 76.0634
1002, 75.7577
1000, 75.466
998, 75.1659
996, 74.8319
994, 74.526
992, 74.229
990, 73.9182
988, 73.6459
986, 73.3656
984, 73.0635
982, 72.8043
980, 72.4967
978, 72.2246
976, 71.9516
974, 71.6795
972, 71.4358
970, 71.1893
968, 70.9399
966, 70.7147
964, 70.4925
962, 70.2949
960, 70.0898
958, 69.8633
956, 69.6796
954, 69.4998
952, 69.3215
950, 69.1643
948, 69.0095
946, 68.8726
944, 68.7361
942, 68.6243
940, 68.5292
938, 68.4158
936, 68.3243
934, 68.2439
932, 68.1837
930, 68.142
928, 68.09
926, 68.0694
924, 68.047
922, 68.041
920, 68.0575
918, 68.0949
916, 68.1174
914, 68.1786
912, 68.2479
910, 68.3281
908, 68.4185
906, 68.5461
904, 68.6554
902, 68.7931
900, 68.9669
898, 69.1459
896, 69.3272
894, 69.5364
892, 69.801
890, 70.0492
888, 70.3177
886, 70.6298
884, 70.9432
882, 71.2742
880, 71.6236
878, 71.9726
876, 72.3308
874, 72.7166
872, 73.132
870, 73.5538
868, 74.0041
866, 74.4607
864, 74.9155
862, 75.3616
860, 75.7993
858, 75.7993
856, 75.7993
854, 75.7993
852, 75.7993
850, 75.7993
848, 75.7993
846, 75.7993
844, 75.7993
842, 75.7993
840, 75.7993
838, 75.7993
836, 75.7993
834, 75.7993
832, 75.7993
830, 75.7993
828, 75.7993
826, 75.7993
824, 75.7993
822, 75.7993
820, 75.7993
818, 75.7993
816, 75.7993
814, 75.1515
812, 76.772
810, 78.6375
808, 77.3141
806, 75.738
804, 73.8975
802, 71.8413
800, 69.8061
798, 67.6011
796, 65.07
794, 62.7879
792, 60.3822
790, 58.1419
788, 56.1052
786, 54.2429
784, 52.447
782, 50.7346
780, 49.0829
778, 47.6188
776, 46.3957
774, 45.1014
772, 43.9361
770, 42.8472
768, 41.7748
766, 40.7739
764, 39.7579
762, 38.8159
760, 37.9911
758, 37.1951
756, 36.416
754, 35.6785
752, 34.9892
750, 34.2462
748, 33.5948
746, 33.0661
744, 32.4801
742, 31.8934
740, 31.3633
738, 30.787
736, 30.323
734, 29.8759
732, 29.3586
730, 28.918
728, 28.5095
726, 28.0188
724, 27.5606
722, 27.124
720, 26.7111
718, 26.3258
716, 25.8813
714, 25.4563
712, 25.1072
710, 24.724
708, 24.3221
706, 24.0265
704, 23.7715
702, 23.4549
700, 23.1367
698, 22.9079
696, 22.6487
694, 22.397
692, 22.1904
690, 21.9635
688, 21.7685
686, 21.583
684, 21.3835
682, 21.1359
680, 20.9117
678, 20.7282
676, 20.5035
674, 20.2582
672, 20.0362
670, 19.8106
668, 19.5638
666, 19.3443
664, 19.1344
662, 18.8607
660, 18.5612
658, 18.3127
656, 18.0676
654, 17.7681
652, 17.4543
650, 17.1355
648, 16.8415
646, 16.5397
644, 16.1849
642, 15.8717
640, 15.5625
638, 15.2485
636, 14.9253
634, 14.5717
632, 14.2062
630, 13.8326
628, 13.4415
626, 13.0332
624, 12.6386
622, 12.2453
620, 11.8531
618, 11.4501
616, 11.0731
614, 10.704
612, 10.3378
610, 9.993427
608, 9.650899
606, 9.317566
604, 9.001282
602, 8.675058
600, 8.337147
598, 8.002409
596, 7.664959
594, 7.299658
592, 6.929233
590, 6.548594
588, 6.148496
586, 5.737256
584, 5.324680
582, 4.938874
580, 4.575346
578, 4.247744
576, 3.948271
574, 3.675816
572, 3.431800
570, 3.215008
568, 3.034882
566, 2.881593
564, 2.723657
562, 2.572845
560, 2.422943
558, 2.272764
556, 2.114279
554, 1.943766
552, 1.772929
550, 1.580983
548, 1.357165
546, 1.134896
544, 0.919446
542, 0.713595
540, 0.537681
538, 0.417308
536, 0.322096
534, 0.243799
532, 0.200480
530, 0.174664
528, 0.147015
526, 0.132299
524, 0.122860
522, 0.107590
520, 0.105784
518, 0.103799
516, 0.092281
514, 0.096699
512, 0.093040
510, 0.077839
508, 0.070613
506, 0.074701
504, 0.076637
502, 0.070674
500, 0.075317
498, 0.068634
496, 0.061533
494, 0.060119
492, 0.056878
490, 0.044938
488, 0.057722
486, 0.067675
484, 0.054808
482, 0.049869
480, 0.048859
478, 0.042737
476, 0.048752
474, 0.044995
472, 0.036559
470, 0.045128
468, 0.054505
466, 0.050451
464, 0.040179
462, 0.038125
460, 0.044738
458, 0.032102
456, 0.025059
454, 0.026172
452, 0.019550
450, 0.017084
448, 0.008734
446, 0.030058
444, 0.035952
442, 0.021333
440, 0.028952
438, 0.034649
436, 0.040758
434, 0.043198
432, 0.031084
430, 0.007115
428, 0.032247
426, 0.025128
424, 0.019534
422, 0.043755
420, 0.015888
418, 0.017114
416, 0.024162
414, 0.000714
412, 0.003166
410, -0.004497
408, -0.012978
406, 0.035576
404, 0.046374
402, 0.036573
400, 0.013023
398, 0.007798
396, 0.026473
394, -0.009242
392, 0.004416
390, 0.034333
388, 0.018625
386, 0.030868
384, 0.016877
382, -0.012057
380, 0.029197
378, 0.029197
376, 0.029197
374, 0.029197
372, 0.029197
370, 0.029197
368, 0.029197
366, 0.029197
364, 0.029197
362, 0.029197
360, 0.029197
358, 0.029197
356, 0.029197
354, 0.029197
352, 0.029197
350, 0.029197
348, 0.029197
346, 0.029197
344, 0.029197
342, 0.029197
340, 0.029197
338, 0.029197
336, 0.029197
334, 0.029197
332, 0.029197
330, 0.029197
328, 0.029197
326, 0.029197
324, 0.029197
322, 0.029197
320, 0.029197
318, 0.029197
316, 0.029197
314, 0.029197
312, 0.029197
310, 0.029197
308, 0.029197
306, 0.029197
304, 0.029197
302, 0.029197
300, 0.029197