File: UV-Vis data/Transmission/3-FAPbI3 MAPbBr3 8-2.Sample.Raw.csv
nm, %T
1100, 86.7047
1098, 86.8407
1096, 87.0441
1094, 87.1351
1092, 87.3064
1090, 87.4736
1088, 87.56
1086, 87.7232
1084, 87.8672
1082, 87.9452
1080, 88.0825
1078, 88.2326
1076, 88.3024
1074, 88.4205
1072, 88.5465
1070, 88.6057
1068, 88.6884
1066, 88.7823
1064, 88.8263
1062, 88.9115
1060, 88.9888
1058, 88.9787
1056, 89.0469
1054, 89.0568
1052, 89.1009
1050, 89.1186
1048, 89.1121
1046, 89.0896
1044, 89.1014
1042, 89.0322
1040, 89.0181
1038, 88.9953
1036, 88.9421
1034, 88.8883
1032, 88.8437
1030, 88.7454
1028, 88.682
1026, 88.592
1024, 88.4933
1022, 88.3713
1020, 88.2411
1018, 88.1143
1016, 87.9869
1014, 87.8171
1012, 87.6684
1010, 87.4939
1008, 87.3139
1006, 87.1385
1004, 86.9269
1002, 86.7042
1000, 86.5212
998, 86.3112
996, 86.0572
994, 85.827
992, 85.577
990, 85.3174
988, 85.0598
986, 84.7813
984, 84.5057
982, 84.2432
980, 83.9613
978, 83.6601
976, 83.3531
974, 83.0344
972, 82.7364
970, 82.4168
968, 82.0835
966, 81.775
964, 81.4456
962, 81.1098
960, 80.7823
958, 80.4167
956, 80.075
954, 79.7661
952, 79.3965
950, 79.0692
948, 78.7311
946, 78.3637
944, 78.0211
942, 77.6827
940, 77.3567
938, 77.0027
936, 76.6554
934, 76.3218
932, 75.9936
930, 75.6654
928, 75.3367
926, 74.9884
924, 74.6661
922, 74.3621
920, 74.0334
918, 73.7577
916, 73.4776
914, 73.1883
912, 72.8856
910, 72.6073
908, 72.3324
906, 72.0787
904, 71.7997
902, 71.536
900, 71.3056
898, 71.0804
896, 70.8289
894, 70.6158
892, 70.4472
890, 70.2351
888, 70.0406
886, 69.8826
884, 69.69
882, 69.5342
880, 69.4005
878, 69.2605
876, 69.1465
874, 69.0541
872, 68.9684
870, 68.8952
868, 68.8358
866, 68.8001
864, 68.7725
862, 68.7482
860, 68.725
858, 68.725
856, 68.725
854, 68.725
852, 68.725
850, 68.725
848, 68.725
846, 68.725
844, 68.725
842, 68.725
840, 68.725
838, 68.725
836, 68.725
834, 68.725
832, 68.725
830, 68.725
828, 68.725
826, 68.725
824, 68.725
822, 68.725
820, 68.725
818, 68.725
816, 68.725
814, 70.2526
812, 72.0881
810, 72.4205
808, 72.9379
806, 73.2464
804, 73.5724
802, 73.9494
800, 74.3443
798, 74.7324
796, 75.134
794, 75.6298
792, 75.8514
790, 76.0804
788, 76.3433
786, 76.5312
784, 76.5339
782, 76.4619
780, 76.2216
778, 75.5971
776, 74.9318
774, 74.1331
772, 72.8429
770, 71.2421
768, 69.5397
766, 67.6931
764, 65.47
762, 63.0274
760, 60.6184
758, 58.4104
756, 56.299
754, 54.1509
752, 52.1263
750, 50.3016
748, 48.5977
746, 47.1046
744, 45.8075
742, 44.5766
740, 43.4915
738, 42.4527
736, 41.5465
734, 40.7334
732, 39.9751
730, 39.2891
728, 38.6462
726, 38.0264
724, 37.4207
722, 36.8267
720, 36.2909
718, 35.8472
716, 35.3106
714, 34.8075
712, 34.3224
710, 33.7818
708, 33.2917
706, 32.8053
704, 32.3267
702, 31.8975
700, 31.435
698, 30.9716
696, 30.4932
694, 30.0112
692, 29.5792
690, 29.1226
688, 28.6888
686, 28.2835
684, 27.8631
682, 27.4248
680, 27.018
678, 26.6425
676, 26.2432
674, 25.8475
672, 25.4694
670, 25.0857
668, 24.6804
666, 24.2898
664, 23.9191
662, 23.5459
660, 23.1898
658, 22.7844
656, 22.3773
654, 22.0075
652, 21.6157
650, 21.207
648, 20.8542
646, 20.5182
644, 20.1601
642, 19.8021
640, 19.4094
638, 18.9989
636, 18.5743
634, 18.139
632, 17.6866
630, 17.2546
628, 16.851
626, 16.4258
624, 16.0263
622, 15.6601
620, 15.291
618, 14.9159
616, 14.5206
614, 14.0816
612, 13.6113
610, 13.0887
608, 12.5492
606, 12.0247
604, 11.4773
602, 10.9322
600, 10.427
598, 9.970783
596, 9.564737
594, 9.197920
592, 8.865402
590, 8.559389
588, 8.272559
586, 7.986113
584, 7.678626
582, 7.356075
580, 7.010390
578, 6.635182
576, 6.234949
574, 5.817822
572, 5.388952
570, 4.973305
568, 4.595733
566, 4.252395
564, 3.923124
562, 3.630781
560, 3.381974
558, 3.177954
556, 2.999001
554, 2.834230
552, 2.692527
550, 2.559449
548, 2.432106
546, 2.311811
544, 2.174711
542, 2.018216
540, 1.855886
538, 1.696557
536, 1.510763
534, 1.305259
532, 1.114573
530, 0.933414
528, 0.763440
526, 0.623752
524, 0.507766
522, 0.418827
520, 0.366873
518, 0.319773
516, 0.271019
514, 0.252889
512, 0.230658
510, 0.209377
508, 0.186971
506, 0.166081
504, 0.162687
502, 0.159042
500, 0.154824
498, 0.134000
496, 0.124801
494, 0.125843
492, 0.107752
490, 0.089774
488, 0.102132
486, 0.117974
484, 0.101889
482, 0.084269
480, 0.080210
478, 0.076825
476, 0.079286
474, 0.084290
472, 0.076275
470, 0.074975
468, 0.079159
466, 0.084697
464, 0.081582
462, 0.062183
460, 0.043107
458, 0.065937
456, 0.073547
454, 0.037680
452, 0.045210
450, 0.046880
448, 0.022851
446, 0.059507
444, 0.069974
442, 0.053840
440, 0.056075
438, 0.055783
436, 0.063220
434, 0.054074
432, 0.048454
430, 0.019719
428, 0.028076
426, 0.044558
424, 0.009563
422, 0.029917
420, 0.043182
418, 0.049204
416, 0.046285
414, -0.006632
412, -0.016441
410, 0.017578
408, 0.048847
406, 0.051422
404, 0.020474
402, -0.000102
400, 0.015996
398, 0.009132
396, 0.001129
394, 0.006983
392, 0.000822
390, -0.026829
388, -0.041881
386, -0.022534
384, -0.028198
382, -0.049772
380, -0.055504
378, -0.055504
376, -0.055504
374, -0.055504
372, -0.055504
370, -0.055504
368, -0.055504
366, -0.055504
364, -0.055504
362, -0.055504
360, -0.055504
358, -0.055504
356, -0.055504
354, -0.055504
352, -0.055504
350, -0.055504
348, -0.055504
346, -0.055504
344, -0.055504
342, -0.055504
340, -0.055504
338, -0.055504
336, -0.055504
334, -0.055504
332, -0.055504
330, -0.055504
328, -0.055504
326, -0.055504
324, -0.055504
322, -0.055504
320, -0.055504
318, -0.055504
316, -0.055504
314, -0.055504
312, -0.055504
310, -0.055504
308, -0.055504
306, -0.055504
304, -0.055504
302, -0.055504
300, -0.055504