File: UV-Vis data/Transmission/4-FAPbI3 MAPbBr3 7-3.Sample.Raw.csv
nm, %T
1100, 80.7947
1098, 80.9153
1096, 81.0685
1094, 81.1222
1092, 81.2776
1090, 81.4055
1088, 81.5145
1086, 81.6214
1084, 81.7568
1082, 81.8712
1080, 81.9846
1078, 82.1194
1076, 82.2207
1074, 82.3369
1072, 82.4646
1070, 82.5605
1068, 82.6666
1066, 82.7734
1064, 82.8771
1062, 83.0113
1060, 83.1219
1058, 83.1799
1056, 83.3014
1054, 83.3911
1052, 83.4887
1050, 83.5828
1048, 83.6837
1046, 83.7436
1044, 83.8518
1042, 83.9138
1040, 83.9684
1038, 84.0676
1036, 84.1452
1034, 84.2219
1032, 84.296
1030, 84.3332
1028, 84.4324
1026, 84.477
1024, 84.5212
1022, 84.5706
1020, 84.6187
1018, 84.6598
1016, 84.699
1014, 84.7339
1012, 84.7439
1010, 84.7808
1008, 84.8002
1006, 84.8144
1004, 84.8321
1002, 84.8409
1000, 84.8512
998, 84.8544
996, 84.8344
994, 84.821
992, 84.8289
990, 84.7863
988, 84.778
986, 84.7334
984, 84.6833
982, 84.6739
980, 84.6175
978, 84.5594
976, 84.489
974, 84.4103
972, 84.3757
970, 84.2854
968, 84.1988
966, 84.1318
964, 84.0319
962, 83.9461
960, 83.8669
958, 83.7419
956, 83.6478
954, 83.5336
952, 83.4097
950, 83.2991
948, 83.164
946, 83.039
944, 82.9054
942, 82.7628
940, 82.627
938, 82.4703
936, 82.3165
934, 82.161
932, 82.0091
930, 81.853
928, 81.6821
926, 81.5067
924, 81.3344
922, 81.1545
920, 80.9712
918, 80.799
916, 80.6104
914, 80.4221
912, 80.209
910, 80.0188
908, 79.8309
906, 79.6402
904, 79.4185
902, 79.2256
900, 79.0549
898, 78.8491
896, 78.6036
894, 78.3836
892, 78.2197
890, 78.0219
888, 77.7974
886, 77.6222
884, 77.4219
882, 77.2178
880, 77.0285
878, 76.85
876, 76.6684
874, 76.4875
872, 76.3013
870, 76.1415
868, 75.989
866, 75.8197
864, 75.6676
862, 75.4894
860, 75.3073
858, 75.3073
856, 75.3073
854, 75.3073
852, 75.3073
850, 75.3073
848, 75.3073
846, 75.3073
844, 75.3073
842, 75.3073
840, 75.3073
838, 75.3073
836, 75.3073
834, 75.3073
832, 75.3073
830, 75.3073
828, 75.3073
826, 75.3073
824, 75.3073
822, 75.3073
820, 75.3073
818, 75.3073
816, 75.3073
814, 74.1865
812, 72.9266
810, 72.8276
808, 72.9904
806, 73.0906
804, 72.9546
802, 72.9374
800, 72.9909
798, 73.1668
796, 73.237
794, 73.2805
792, 73.2441
790, 73.2525
788, 73.2829
786, 73.6037
784, 73.6691
782, 73.7251
780, 73.948
778, 74.0702
776, 74.2841
774, 74.4406
772, 74.5197
770, 74.6234
768, 74.7516
766, 74.8785
764, 74.8457
762, 74.8488
760, 74.8801
758, 74.7699
756, 74.6521
754, 74.4721
752, 74.1729
750, 73.7345
748, 73.2442
746, 72.6436
744, 71.7658
742, 70.7035
740, 69.3232
738, 67.7333
736, 66.1115
734, 64.2112
732, 61.9987
730, 59.7073
728, 57.4125
726, 55.0418
724, 52.8434
722, 50.8372
720, 48.9519
718, 47.408
716, 46.0721
714, 44.8988
712, 43.9246
710, 43.1226
708, 42.5675
706, 42.0808
704, 41.6435
702, 41.2909
700, 41.0019
698, 40.7476
696, 40.503
694, 40.2785
692, 40.0652
690, 39.8621
688, 39.6805
686, 39.5083
684, 39.279
682, 39.0358
680, 38.819
678, 38.6398
676, 38.3876
674, 38.1114
672, 37.8549
670, 37.6087
668, 37.3422
666, 37.056
664, 36.8189
662, 36.5197
660, 36.2177
658, 35.9601
656, 35.6724
654, 35.3539
652, 35.0396
650, 34.7431
648, 34.4412
646, 34.1058
644, 33.764
642, 33.4421
640, 33.1308
638, 32.7947
636, 32.4409
634, 32.1047
632, 31.7639
630, 31.433
628, 31.0799
626, 30.72
624, 30.3608
622, 30.0071
620, 29.664
618, 29.2945
616, 28.9545
614, 28.5796
612, 28.163
610, 27.7687
608, 27.3417
606, 26.9113
604, 26.4681
602, 26.0514
600, 25.6209
598, 25.1773
596, 24.7505
594, 24.2921
592, 23.81
590, 23.3007
588, 22.739
586, 22.1349
584, 21.4818
582, 20.7931
580, 20.0894
578, 19.3967
576, 18.7136
574, 18.0466
572, 17.398
570, 16.7587
568, 16.1096
566, 15.3984
564, 14.5934
562, 13.7002
560, 12.691
558, 11.6138
556, 10.4857
554, 9.339519
552, 8.246717
550, 7.267627
548, 6.420984
546, 5.712829
544, 5.141089
542, 4.687825
540, 4.334480
538, 4.070921
536, 3.847821
534, 3.654541
532, 3.479547
530, 3.281794
528, 3.046413
526, 2.781844
524, 2.472604
522, 2.126085
520, 1.784232
518, 1.456144
516, 1.157554
514, 0.915776
512, 0.723771
510, 0.588241
508, 0.485899
506, 0.401234
504, 0.344611
502, 0.305913
500, 0.282566
498, 0.263812
496, 0.240519
494, 0.239051
492, 0.244808
490, 0.221538
488, 0.201113
486, 0.212273
484, 0.213641
482, 0.206906
480, 0.200017
478, 0.197302
476, 0.206103
474, 0.201767
472, 0.207237
470, 0.204348
468, 0.195809
466, 0.197932
464, 0.182948
462, 0.172278
460, 0.182008
458, 0.168053
456, 0.147196
454, 0.145423
452, 0.148663
450, 0.141656
448, 0.114559
446, 0.120029
444, 0.131621
442, 0.131857
440, 0.125762
438, 0.123455
436, 0.114955
434, 0.106928
432, 0.101886
430, 0.085481
428, 0.080465
426, 0.071924
424, 0.084951
422, 0.089851
420, 0.068032
418, 0.073246
416, 0.053829
414, 0.020916
412, 0.030125
410, 0.023710
408, 0.015737
406, 0.032611
404, 0.040743
402, 0.045485
400, 0.035274
398, 0.026575
396, 0.041865
394, 0.021667
392, 0.041286
390, 0.043482
388, 0.045174
386, 0.071923
384, 0.013687
382, -0.058222
380, -0.046632
378, -0.046632
376, -0.046632
374, -0.046632
372, -0.046632
370, -0.046632
368, -0.046632
366, -0.046632
364, -0.046632
362, -0.046632
360, -0.046632
358, -0.046632
356, -0.046632
354, -0.046632
352, -0.046632
350, -0.046632
348, -0.046632
346, -0.046632
344, -0.046632
342, -0.046632
340, -0.046632
338, -0.046632
336, -0.046632
334, -0.046632
332, -0.046632
330, -0.046632
328, -0.046632
326, -0.046632
324, -0.046632
322, -0.046632
320, -0.046632
318, -0.046632
316, -0.046632
314, -0.046632
312, -0.046632
310, -0.046632
308, -0.046632
306, -0.046632
304, -0.046632
302, -0.046632
300, -0.046632