File: UV-Vis data/Transmission/5-FAPbI3 MAPbBr3 6-4.Sample.Raw.csv
nm, %T
1100, 80.2695
1098, 80.4548
1096, 80.6975
1094, 80.838
1092, 81.0508
1090, 81.2678
1088, 81.4272
1086, 81.666
1084, 81.8843
1082, 82.0664
1080, 82.266
1078, 82.4671
1076, 82.6914
1074, 82.8955
1072, 83.0934
1070, 83.2892
1068, 83.5035
1066, 83.7017
1064, 83.8971
1062, 84.126
1060, 84.324
1058, 84.4706
1056, 84.7091
1054, 84.8636
1052, 85.0785
1050, 85.2964
1048, 85.4723
1046, 85.6415
1044, 85.8426
1042, 85.9927
1040, 86.1888
1038, 86.3581
1036, 86.5057
1034, 86.708
1032, 86.8506
1030, 86.9866
1028, 87.1714
1026, 87.3214
1024, 87.4686
1022, 87.5907
1020, 87.7309
1018, 87.8338
1016, 87.9574
1014, 88.0524
1012, 88.1719
1010, 88.2797
1008, 88.3656
1006, 88.4634
1004, 88.5655
1002, 88.6227
1000, 88.6931
998, 88.7295
996, 88.7584
994, 88.7993
992, 88.8286
990, 88.8294
988, 88.8522
986, 88.857
984, 88.8396
982, 88.835
980, 88.7971
978, 88.7712
976, 88.7066
974, 88.6446
972, 88.5844
970, 88.4859
968, 88.3816
966, 88.298
964, 88.168
962, 88.0502
960, 87.9344
958, 87.7896
956, 87.627
954, 87.4473
952, 87.2789
950, 87.0996
948, 86.8939
946, 86.6784
944, 86.4802
942, 86.252
940, 86.0193
938, 85.7705
936, 85.5215
934, 85.256
932, 84.9847
930, 84.7236
928, 84.4267
926, 84.1156
924, 83.8152
922, 83.5149
920, 83.1861
918, 82.8888
916, 82.568
914, 82.2281
912, 81.8808
910, 81.5459
908, 81.203
906, 80.859
904, 80.49
902, 80.1247
900, 79.7841
898, 79.435
896, 79.053
894, 78.6776
892, 78.3305
890, 77.965
888, 77.5764
886, 77.2201
884, 76.8408
882, 76.4713
880, 76.1228
878, 75.7602
876, 75.3827
874, 75.0287
872, 74.6874
870, 74.3404
868, 74.0091
866, 73.6789
864, 73.35
862, 73.0083
860, 72.6818
858, 72.6818
856, 72.6818
854, 72.6818
852, 72.6818
850, 72.6818
848, 72.6818
846, 72.6818
844, 72.6818
842, 72.6818
840, 72.6818
838, 72.6818
836, 72.6818
834, 72.6818
832, 72.6818
830, 72.6818
828, 72.6818
826, 72.6818
824, 72.6818
822, 72.6818
820, 72.6818
818, 72.6818
816, 72.6818
814, 70.7732
812, 68.587
810, 68.4839
808, 68.5601
806, 68.4866
804, 68.52
802, 68.5969
800, 68.585
798, 68.5304
796, 68.5308
794, 68.8088
792, 68.9668
790, 69.1631
788, 69.4297
786, 69.79
784, 70.0425
782, 70.242
780, 70.4756
778, 70.6912
776, 71.2076
774, 71.6362
772, 72.0013
770, 72.3885
768, 72.8193
766, 73.4447
764, 73.8389
762, 74.2028
760, 74.668
758, 75.1828
756, 75.8595
754, 76.3984
752, 76.94
750, 77.465
748, 77.9014
746, 78.4488
744, 79.0133
742, 79.4862
740, 79.8948
738, 80.1954
736, 80.5443
734, 80.7593
732, 80.6692
730, 80.3852
728, 79.9643
726, 79.248
724, 78.0248
722, 76.3331
720, 74.2403
718, 71.614
716, 68.4479
714, 64.7189
712, 60.4889
710, 55.9457
708, 51.2533
706, 46.6084
704, 42.1864
702, 38.1746
700, 34.6433
698, 31.6225
696, 29.0695
694, 27.0247
692, 25.4278
690, 24.1705
688, 23.1987
686, 22.465
684, 21.8693
682, 21.3598
680, 20.9988
678, 20.7102
676, 20.4064
674, 20.1281
672, 19.9153
670, 19.7072
668, 19.4866
666, 19.2904
664, 19.084
662, 18.851
660, 18.6295
658, 18.4187
656, 18.1956
654, 17.9432
652, 17.6808
650, 17.4392
648, 17.1878
646, 16.9451
644, 16.6888
642, 16.433
640, 16.1729
638, 15.9185
636, 15.6605
634, 15.3756
632, 15.0882
630, 14.8282
628, 14.5636
626, 14.2803
624, 14.0031
622, 13.7232
620, 13.4392
618, 13.1549
616, 12.8658
614, 12.5853
612, 12.2974
610, 11.9948
608, 11.6936
606, 11.3999
604, 11.1157
602, 10.81
600, 10.487
598, 10.1859
596, 9.885104
594, 9.562873
592, 9.241831
590, 8.912772
588, 8.593314
586, 8.281393
584, 7.943779
582, 7.617761
580, 7.297178
578, 6.975079
576, 6.641266
574, 6.288790
572, 5.942863
570, 5.615858
568, 5.317241
566, 5.031513
564, 4.741007
562, 4.462424
560, 4.201871
558, 3.962193
556, 3.735878
554, 3.515053
552, 3.308821
550, 3.100888
548, 2.895374
546, 2.703946
544, 2.518178
542, 2.332288
540, 2.151947
538, 1.996411
536, 1.837957
534, 1.686813
532, 1.560809
530, 1.441696
528, 1.323649
526, 1.215986
524, 1.118902
522, 1.027315
520, 0.945212
518, 0.861652
516, 0.781173
514, 0.714814
512, 0.637479
510, 0.575046
508, 0.524788
506, 0.463246
504, 0.406105
502, 0.354290
500, 0.322932
498, 0.301601
496, 0.257867
494, 0.231918
492, 0.213367
490, 0.172533
488, 0.140444
486, 0.136671
484, 0.124158
482, 0.112053
480, 0.107999
478, 0.091172
476, 0.084375
474, 0.077877
472, 0.073220
470, 0.070289
468, 0.069277
466, 0.069001
464, 0.049459
462, 0.040674
460, 0.037502
458, 0.028535
456, 0.037385
454, 0.049493
452, 0.053763
450, 0.034270
448, 0.009039
446, 0.042853
444, 0.058397
442, 0.055465
440, 0.049370
438, 0.027739
436, 0.016059
434, 0.017076
432, 0.023872
430, 0.000813
428, 0.008850
426, 0.025636
424, 0.022586
422, 0.041822
420, 0.025054
418, 0.034025
416, 0.048324
414, 0.001326
412, 0.006127
410, 0.022585
408, 0.022073
406, 0.040994
404, 0.049342
402, 0.016084
400, -0.016304
398, -0.025856
396, -0.006977
394, 0.008010
392, 0.022081
390, 0.024054
388, 0.037456
386, 0.061942
384, 0.010806
382, -0.071103
380, -0.058187
378, -0.058187
376, -0.058187
374, -0.058187
372, -0.058187
370, -0.058187
368, -0.058187
366, -0.058187
364, -0.058187
362, -0.058187
360, -0.058187
358, -0.058187
356, -0.058187
354, -0.058187
352, -0.058187
350, -0.058187
348, -0.058187
346, -0.058187
344, -0.058187
342, -0.058187
340, -0.058187
338, -0.058187
336, -0.058187
334, -0.058187
332, -0.058187
330, -0.058187
328, -0.058187
326, -0.058187
324, -0.058187
322, -0.058187
320, -0.058187
318, -0.058187
316, -0.058187
314, -0.058187
312, -0.058187
310, -0.058187
308, -0.058187
306, -0.058187
304, -0.058187
302, -0.058187
300, -0.058187