File: UV-Vis data/Transmission/6-FAPbI3 MAPbBr3 5-5.Sample.Raw.csv
nm, %T
1100, 79.3655
1098, 79.4242
1096, 79.5256
1094, 79.5722
1092, 79.624
1090, 79.7313
1088, 79.768
1086, 79.8429
1084, 79.9106
1082, 79.9673
1080, 80.0417
1078, 80.1468
1076, 80.1936
1074, 80.2819
1072, 80.3492
1070, 80.402
1068, 80.5008
1066, 80.5839
1064, 80.6313
1062, 80.7269
1060, 80.8
1058, 80.8264
1056, 80.9205
1054, 80.9539
1052, 81.0516
1050, 81.1489
1048, 81.1917
1046, 81.2501
1044, 81.3262
1042, 81.3738
1040, 81.4352
1038, 81.5066
1036, 81.5815
1034, 81.6474
1032, 81.6912
1030, 81.7732
1028, 81.8396
1026, 81.8764
1024, 81.9618
1022, 82.0069
1020, 82.0406
1018, 82.1146
1016, 82.1519
1014, 82.179
1012, 82.2603
1010, 82.3043
1008, 82.3331
1006, 82.3798
1004, 82.4266
1002, 82.4624
1000, 82.5229
998, 82.5598
996, 82.5928
994, 82.6251
992, 82.6256
990, 82.6653
988, 82.6994
986, 82.722
984, 82.7447
982, 82.7574
980, 82.7899
978, 82.8075
976, 82.8058
974, 82.82
972, 82.8224
970, 82.8336
968, 82.8394
966, 82.8487
964, 82.8528
962, 82.835
960, 82.8313
958, 82.8154
956, 82.8036
954, 82.7936
952, 82.7746
950, 82.7599
948, 82.7436
946, 82.6997
944, 82.6645
942, 82.6442
940, 82.6034
938, 82.5675
936, 82.533
934, 82.4901
932, 82.4543
930, 82.4191
928, 82.3701
926, 82.3239
924, 82.2638
922, 82.2031
920, 82.1561
918, 82.1031
916, 82.0387
914, 81.9925
912, 81.9151
910, 81.83
908, 81.7751
906, 81.7111
904, 81.6206
902, 81.5405
900, 81.4731
898, 81.3896
896, 81.2819
894, 81.1934
892, 81.1256
890, 81.0347
888, 80.9328
886, 80.8445
884, 80.7299
882, 80.6237
880, 80.5264
878, 80.4062
876, 80.3005
874, 80.1931
872, 80.0658
870, 79.9566
868, 79.8601
866, 79.7401
864, 79.6029
862, 79.464
860, 79.3199
858, 79.3199
856, 79.3199
854, 79.3199
852, 79.3199
850, 79.3199
848, 79.3199
846, 79.3199
844, 79.3199
842, 79.3199
840, 79.3199
838, 79.3199
836, 79.3199
834, 79.3199
832, 79.3199
830, 79.3199
828, 79.3199
826, 79.3199
824, 79.3199
822, 79.3199
820, 79.3199
818, 79.3199
816, 79.3199
814, 78.6331
812, 77.4228
810, 76.9748
808, 76.9429
806, 76.8439
804, 76.7661
802, 76.7044
800, 76.7822
798, 76.6244
796, 76.5391
794, 76.6468
792, 76.4721
790, 76.2944
788, 76.3556
786, 76.5489
784, 76.5857
782, 76.6138
780, 76.5471
778, 76.371
776, 76.4489
774, 76.649
772, 76.6323
770, 76.5807
768, 76.6009
766, 76.7455
764, 76.6982
762, 76.6419
760, 76.6823
758, 76.7423
756, 76.8359
754, 76.7852
752, 76.8343
750, 76.9581
748, 76.9608
746, 76.9533
744, 77.058
742, 77.0602
740, 77.0222
738, 76.9922
736, 77.1146
734, 77.2276
732, 77.2277
730, 77.2446
728, 77.2729
726, 77.273
724, 77.2819
722, 77.3287
720, 77.2802
718, 77.2586
716, 77.2931
714, 77.2335
712, 77.2412
710, 77.2283
708, 77.0777
706, 76.8949
704, 76.814
702, 76.698
700, 76.4626
698, 76.1578
696, 75.7469
694, 75.2152
692, 74.6446
690, 73.9078
688, 72.9127
686, 71.7687
684, 70.2977
682, 68.422
680, 66.1441
678, 63.4858
676, 60.2958
674, 56.536
672, 52.3415
670, 47.8012
668, 43.0759
666, 38.3895
664, 33.8869
662, 29.7857
660, 26.2976
658, 23.439
656, 21.1099
654, 19.2979
652, 17.9688
650, 17.0054
648, 16.3354
646, 15.8772
644, 15.5904
642, 15.3947
640, 15.2523
638, 15.1558
636, 15.0772
634, 15.0196
632, 14.9646
630, 14.9113
628, 14.8361
626, 14.7406
624, 14.635
622, 14.5096
620, 14.3697
618, 14.2225
616, 14.0873
614, 13.9372
612, 13.7446
610, 13.5565
608, 13.3711
606, 13.1695
604, 12.971
602, 12.7719
600, 12.5456
598, 12.3161
596, 12.0973
594, 11.8706
592, 11.6366
590, 11.3921
588, 11.1496
586, 10.9162
584, 10.6583
582, 10.3971
580, 10.1415
578, 9.892504
576, 9.640580
574, 9.380895
572, 9.118415
570, 8.846986
568, 8.579634
566, 8.315928
564, 8.045819
562, 7.790733
560, 7.528008
558, 7.264259
556, 7.001611
554, 6.724719
552, 6.466245
550, 6.208404
548, 5.944049
546, 5.693044
544, 5.440194
542, 5.193705
540, 4.950865
538, 4.720078
536, 4.489974
534, 4.251651
532, 4.022964
530, 3.803645
528, 3.591013
526, 3.392234
524, 3.197211
522, 3.000589
520, 2.815112
518, 2.637365
516, 2.462778
514, 2.309526
512, 2.153420
510, 1.999262
508, 1.850982
506, 1.697340
504, 1.563846
502, 1.445902
500, 1.335877
498, 1.218456
496, 1.103613
494, 1.002974
492, 0.917265
490, 0.826878
488, 0.751810
486, 0.703375
484, 0.628009
482, 0.550697
480, 0.502434
478, 0.454844
476, 0.422384
474, 0.387347
472, 0.344512
470, 0.312227
468, 0.283729
466, 0.257659
464, 0.237302
462, 0.212544
460, 0.187307
458, 0.158473
456, 0.134158
454, 0.119556
452, 0.106915
450, 0.096810
448, 0.090287
446, 0.093322
444, 0.095567
442, 0.087058
440, 0.083401
438, 0.089314
436, 0.093407
434, 0.082330
432, 0.065723
430, 0.046857
428, 0.052795
426, 0.044457
424, 0.039474
422, 0.061766
420, 0.049191
418, 0.065809
416, 0.079316
414, 0.051626
412, 0.026653
410, -0.000409
408, 0.006336
406, 0.036394
404, 0.041153
402, 0.048763
400, 0.011382
398, 0.019700
396, 0.068235
394, 0.015403
392, 0.013454
390, 0.028577
388, 0.039617
386, 0.055460
384, 0.046825
382, 0.027720
380, -0.035180
378, -0.035180
376, -0.035180
374, -0.035180
372, -0.035180
370, -0.035180
368, -0.035180
366, -0.035180
364, -0.035180
362, -0.035180
360, -0.035180
358, -0.035180
356, -0.035180
354, -0.035180
352, -0.035180
350, -0.035180
348, -0.035180
346, -0.035180
344, -0.035180
342, -0.035180
340, -0.035180
338, -0.035180
336, -0.035180
334, -0.035180
332, -0.035180
330, -0.035180
328, -0.035180
326, -0.035180
324, -0.035180
322, -0.035180
320, -0.035180
318, -0.035180
316, -0.035180
314, -0.035180
312, -0.035180
310, -0.035180
308, -0.035180
306, -0.035180
304, -0.035180
302, -0.035180
300, -0.035180