File: UV-Vis data/Transmission/7FAPbI3 MAPbBr3 4-6.Sample.Raw.csv
nm, %T
1100, 74.4289
1098, 74.4595
1096, 74.5672
1094, 74.6087
1092, 74.6853
1090, 74.7713
1088, 74.8163
1086, 74.9187
1084, 74.9752
1082, 75.0844
1080, 75.1684
1078, 75.2745
1076, 75.3494
1074, 75.437
1072, 75.544
1070, 75.6514
1068, 75.763
1066, 75.8789
1064, 75.9764
1062, 76.0951
1060, 76.2189
1058, 76.3302
1056, 76.4723
1054, 76.5517
1052, 76.6935
1050, 76.8493
1048, 76.9592
1046, 77.1109
1044, 77.236
1042, 77.348
1040, 77.4858
1038, 77.606
1036, 77.7731
1034, 77.9163
1032, 78.0756
1030, 78.1981
1028, 78.3916
1026, 78.5179
1024, 78.6906
1022, 78.8356
1020, 78.9849
1018, 79.1612
1016, 79.323
1014, 79.4672
1012, 79.6745
1010, 79.8337
1008, 80.0203
1006, 80.1947
1004, 80.3607
1002, 80.5217
1000, 80.7209
998, 80.8986
996, 81.0545
994, 81.2585
992, 81.4162
990, 81.5884
988, 81.7904
986, 81.9477
984, 82.1293
982, 82.3316
980, 82.5114
978, 82.6809
976, 82.8582
974, 83.0262
972, 83.2173
970, 83.3885
968, 83.5414
966, 83.7402
964, 83.9205
962, 84.0809
960, 84.2541
958, 84.39
956, 84.5461
954, 84.7067
952, 84.8628
950, 85.014
948, 85.1598
946, 85.2876
944, 85.4331
942, 85.5664
940, 85.697
938, 85.8142
936, 85.9324
934, 86.0677
932, 86.181
930, 86.2783
928, 86.376
926, 86.4733
924, 86.5425
922, 86.6298
920, 86.7083
918, 86.7764
916, 86.8288
914, 86.8801
912, 86.9304
910, 86.9604
908, 86.9908
906, 87.0132
904, 87.0114
902, 87.0096
900, 87.0153
898, 87.0168
896, 86.9768
894, 86.9256
892, 86.9042
890, 86.8426
888, 86.7727
886, 86.7134
884, 86.6209
882, 86.5225
880, 86.4203
878, 86.3241
876, 86.1987
874, 86.0484
872, 85.913
870, 85.7734
868, 85.6271
866, 85.4575
864, 85.2622
862, 85.0452
860, 84.833
858, 84.833
856, 84.833
854, 84.833
852, 84.833
850, 84.833
848, 84.833
846, 84.833
844, 84.833
842, 84.833
840, 84.833
838, 84.833
836, 84.833
834, 84.833
832, 84.833
830, 84.833
828, 84.833
826, 84.833
824, 84.833
822, 84.833
820, 84.833
818, 84.833
816, 84.833
814, 84.0852
812, 81.4045
810, 79.1839
808, 78.9096
806, 78.5581
804, 78.312
802, 77.9489
800, 77.5053
798, 77.1061
796, 76.7449
794, 76.6166
792, 76.2296
790, 75.7939
788, 75.5661
786, 75.2804
784, 75.0354
782, 74.9629
780, 74.726
778, 74.3193
776, 74.0563
774, 73.9476
772, 73.7497
770, 73.5137
768, 73.2631
766, 73.1261
764, 72.8695
762, 72.5678
760, 72.407
758, 72.2457
756, 72.1604
754, 71.9232
752, 71.7977
750, 71.7593
748, 71.5831
746, 71.4711
744, 71.3745
742, 71.2631
740, 71.178
738, 71.022
736, 71.0366
734, 71.0875
732, 71.0498
730, 71.1235
728, 71.2148
726, 71.2448
724, 71.3334
722, 71.4401
720, 71.5085
718, 71.6433
716, 71.827
714, 72.0328
712, 72.2713
710, 72.5089
708, 72.7868
706, 73.0445
704, 73.3966
702, 73.7577
700, 73.9875
698, 74.2517
696, 74.6598
694, 75.0424
692, 75.4955
690, 75.8972
688, 76.2085
686, 76.6123
684, 77.0133
682, 77.3942
680, 77.7204
678, 78.0587
676, 78.3936
674, 78.6378
672, 78.7191
670, 78.6901
668, 78.5326
666, 78.2184
664, 77.7236
662, 76.9409
660, 75.7837
658, 74.2344
656, 72.253
654, 69.6943
652, 66.5346
650, 62.7535
648, 58.4837
646, 53.7446
644, 48.6
642, 43.3208
640, 38.0613
638, 33.0539
636, 28.5396
634, 24.6015
632, 21.2969
630, 18.6784
628, 16.6851
626, 15.2157
624, 14.1872
622, 13.4932
620, 13.0388
618, 12.7825
616, 12.6409
614, 12.5679
612, 12.5499
610, 12.5379
608, 12.5268
606, 12.5061
604, 12.4986
602, 12.4751
600, 12.406
598, 12.3375
596, 12.2574
594, 12.1501
592, 12.0268
590, 11.8954
588, 11.7556
586, 11.5941
584, 11.4047
582, 11.2264
580, 11.0456
578, 10.8623
576, 10.671
574, 10.4642
572, 10.2464
570, 10.0203
568, 9.810441
566, 9.598371
564, 9.363599
562, 9.113561
560, 8.866568
558, 8.630508
556, 8.391146
554, 8.148054
552, 7.901409
550, 7.652957
548, 7.401477
546, 7.153478
544, 6.910635
542, 6.669943
540, 6.420058
538, 6.170308
536, 5.921308
534, 5.672742
532, 5.432547
530, 5.192391
528, 4.943739
526, 4.705939
524, 4.482341
522, 4.258193
520, 4.038977
518, 3.819811
516, 3.593046
514, 3.382923
512, 3.177476
510, 2.988459
508, 2.800676
506, 2.606947
504, 2.422304
502, 2.254715
500, 2.100185
498, 1.942789
496, 1.778332
494, 1.622000
492, 1.504559
490, 1.374267
488, 1.242855
486, 1.138895
484, 1.028141
482, 0.926547
480, 0.839358
478, 0.759599
476, 0.696272
474, 0.627492
472, 0.557451
470, 0.492127
468, 0.420144
466, 0.370588
464, 0.351008
462, 0.319479
460, 0.281980
458, 0.233378
456, 0.203223
454, 0.184426
452, 0.159049
450, 0.141249
448, 0.107349
446, 0.110890
444, 0.128980
442, 0.116213
440, 0.096912
438, 0.090635
436, 0.068302
434, 0.044926
432, 0.040734
430, 0.028358
428, 0.045675
426, 0.047509
424, 0.036625
422, 0.039176
420, 0.020776
418, 0.052260
416, 0.078296
414, 0.039383
412, 0.019403
410, 0.011037
408, 0.018803
406, 0.060418
404, 0.071864
402, 0.041490
400, -0.013535
398, -0.049866
396, -0.023908
394, -0.005237
392, 0.057308
390, 0.044202
388, -0.002573
386, 0.032618
384, 0.016980
382, 0.022361
380, 0.012174
378, 0.012174
376, 0.012174
374, 0.012174
372, 0.012174
370, 0.012174
368, 0.012174
366, 0.012174
364, 0.012174
362, 0.012174
360, 0.012174
358, 0.012174
356, 0.012174
354, 0.012174
352, 0.012174
350, 0.012174
348, 0.012174
346, 0.012174
344, 0.012174
342, 0.012174
340, 0.012174
338, 0.012174
336, 0.012174
334, 0.012174
332, 0.012174
330, 0.012174
328, 0.012174
326, 0.012174
324, 0.012174
322, 0.012174
320, 0.012174
318, 0.012174
316, 0.012174
314, 0.012174
312, 0.012174
310, 0.012174
308, 0.012174
306, 0.012174
304, 0.012174
302, 0.012174
300, 0.012174