File: UV-Vis data/Transmission/8-3FAPbI3-7MAPbBr3.Sample.Raw.csv
nm, %T
1200, 75.707
1198, 75.6609
1196, 75.5818
1194, 75.5496
1192, 75.4577
1190, 75.3874
1188, 75.2924
1186, 75.2381
1184, 75.178
1182, 75.077
1180, 75.0629
1178, 74.9906
1176, 74.9538
1174, 74.8634
1172, 74.8209
1170, 74.7448
1168, 74.7133
1166, 74.6499
1164, 74.6191
1162, 74.5282
1160, 74.4852
1158, 74.4656
1156, 74.4202
1154, 74.3692
1152, 74.3126
1150, 74.298
1148, 74.2614
1146, 74.2495
1144, 74.1924
1142, 74.1748
1140, 74.1359
1138, 74.0756
1136, 74.0584
1134, 74.033
1132, 74.003
1130, 73.9596
1128, 73.9771
1126, 73.9533
1124, 73.9217
1122, 73.9154
1120, 73.9045
1118, 73.8937
1116, 73.8798
1114, 73.8779
1112, 73.8748
1110, 73.8482
1108, 73.8738
1106, 73.8678
1104, 73.8843
1102, 73.8749
1100, 73.8731
1098, 73.9232
1096, 73.9171
1094, 73.9225
1092, 73.9318
1090, 73.9579
1088, 73.9614
1086, 73.9924
1084, 74.0134
1082, 74.0334
1080, 74.0754
1078, 74.1176
1076, 74.1398
1074, 74.1783
1072, 74.2317
1070, 74.2693
1068, 74.3172
1066, 74.3833
1064, 74.4371
1062, 74.4842
1060, 74.5387
1058, 74.5953
1056, 74.6528
1054, 74.7227
1052, 74.7907
1050, 74.8522
1048, 74.9288
1046, 74.9963
1044, 75.086
1042, 75.1713
1040, 75.2494
1038, 75.3484
1036, 75.4205
1034, 75.5248
1032, 75.6165
1030, 75.7283
1028, 75.8181
1026, 75.923
1024, 76.0513
1022, 76.1476
1020, 76.2485
1018, 76.3901
1016, 76.4861
1014, 76.6257
1012, 76.7487
1010, 76.8648
1008, 76.9803
1006, 77.1225
1004, 77.2583
1002, 77.396
1000, 77.5307
998, 77.6766
996, 77.8361
994, 77.989
992, 78.1475
990, 78.3023
988, 78.4461
986, 78.5907
984, 78.7629
982, 78.9199
980, 79.0832
978, 79.2678
976, 79.4419
974, 79.6149
972, 79.799
970, 79.9698
968, 80.1422
966, 80.3295
964, 80.5137
962, 80.691
960, 80.8707
958, 81.0615
956, 81.2599
954, 81.4504
952, 81.6517
950, 81.8546
948, 82.0358
946, 82.2307
944, 82.4259
942, 82.6178
940, 82.8151
938, 83.023
936, 83.2189
934, 83.4107
932, 83.599
930, 83.7944
928, 83.9903
926, 84.1688
924, 84.3359
922, 84.5228
920, 84.712
918, 84.8938
916, 85.0821
914, 85.2496
912, 85.4181
910, 85.5883
908, 85.7552
906, 85.896
904, 86.0627
902, 86.2091
900, 86.3659
898, 86.5298
896, 86.6372
894, 86.7602
892, 86.8886
890, 87.0071
888, 87.1042
886, 87.1969
884, 87.3102
882, 87.4034
880, 87.5083
878, 87.5775
876, 87.6293
874, 87.6886
872, 87.7278
870, 87.765
868, 87.7662
866, 87.7665
864, 87.7527
862, 87.7647
860, 87.7347
858, 87.7347
856, 87.7347
854, 87.7347
852, 87.7347
850, 87.7347
848, 87.7347
846, 87.7347
844, 87.7347
842, 87.7347
840, 87.7347
838, 87.7347
836, 87.7347
834, 87.7347
832, 87.7347
830, 87.7347
828, 87.7347
826, 87.7347
824, 87.7347
822, 87.7347
820, 87.7347
818, 87.7347
816, 87.7347
814, 87.7347
812, 87.7347
810, 87.7347
808, 87.7347
806, 87.7347
804, 87.7347
802, 87.7347
800, 87.7347
798, 87.7347
796, 87.7347
794, 87.7347
792, 87.7347
790, 87.7347
788, 87.7347
786, 87.7347
784, 87.7347
782, 87.7347
780, 87.7347
778, 87.7347
776, 87.7347
774, 87.7347
772, 87.7347
770, 87.7347
768, 87.7347
766, 87.7347
764, 87.7347
762, 87.7347
760, 87.7347
758, 87.7347
756, 87.7347
754, 87.7347
752, 87.7347
750, 87.7347
748, 87.7347
746, 87.7347
744, 87.7347
742, 87.7347
740, 87.7347
738, 87.7347
736, 87.7347
734, 87.7347
732, 87.7347
730, 87.7347
728, 87.7347
726, 87.7347
724, 87.7347
722, 87.7347
720, 87.7347
718, 87.7347
716, 87.7347
714, 87.7347
712, 87.7347
710, 87.7347
708, 87.7347
706, 87.7347
704, 87.7347
702, 87.7347
700, 87.7347
698, 87.7347
696, 87.7347
694, 87.7347
692, 87.7347
690, 87.7347
688, 87.7347
686, 87.7347
684, 87.7347
682, 87.7347
680, 87.7347
678, 87.7347
676, 87.7347
674, 87.7347
672, 87.7347
670, 87.7347
668, 87.7347
666, 88.8408
664, 89.4583
662, 89.4806
660, 89.5316
658, 89.4926
656, 89.5018
654, 89.5648
652, 89.6037
650, 89.6148
648, 89.6626
646, 89.6843
644, 89.6566
642, 89.7218
640, 89.8278
638, 89.8419
636, 89.819
634, 89.7824
632, 89.8155
630, 89.8591
628, 80.2945
626, 73.6252
624, 70.4993
622, 66.6986
620, 62.1586
618, 57.1009
616, 51.5299
614, 45.6237
612, 39.6317
610, 33.7816
608, 28.3767
606, 23.6863
604, 19.7995
602, 16.9205
600, 14.3722
598, 12.9048
596, 11.9146
594, 11.2198
592, 10.7751
590, 10.7015
588, 10.8258
586, 10.4449
584, 10.733
582, 10.6698
580, 8.738415
578, 9.411629
576, 10.6079
574, 11.0411
572, 10.9705
570, 10.8018
568, 10.5558
566, 10.6523
564, 11.0674
562, 10.8522
560, 10.4399
558, 10.0287
556, 9.738025
554, 9.549995
552, 9.362637
550, 9.180976
548, 9.003360
546, 8.813303
544, 8.620331
542, 8.411778
540, 8.214108
538, 8.015137
536, 7.821735
534, 7.605737
532, 7.407593
530, 7.236980
528, 7.158583
526, 6.992782
524, 6.763247
522, 6.600240
520, 6.538673
518, 6.009982
516, 5.848256
514, 5.981720
512, 5.944727
510, 5.815443
508, 5.682661
506, 5.457743
504, 5.227206
502, 4.973923
500, 4.541688
498, 3.906426
496, 3.010596
494, 2.028865
492, 1.135902
490, 0.506376
488, 0.145836
486, 0.147477
484, 0.736641
482, 1.530843
480, 1.786448
478, 1.770767
476, 1.793047
474, 1.838164
472, 1.868815
470, 1.935680
468, 1.953828
466, 1.994906
464, 2.056742
462, 2.059287
460, 2.199773
458, 2.430056
456, 2.649553
454, 2.935795
452, 3.224697
450, 3.878724
448, 4.807121
446, 4.874992
444, 4.539737
442, 4.306613
440, 4.177901
438, 4.039014
436, 3.943477
434, 3.858509
432, 3.789404
430, 3.669378
428, 3.612004
426, 3.559723
424, 3.450009
422, 3.450073
420, 3.450073
418, 3.450073
416, 3.450073
414, 3.450073
412, 3.450073
410, 3.450073
408, 3.450073
406, 3.450073
404, 3.450073
402, 3.450073
400, 3.450073
398, 3.450073
396, 3.450073
394, 3.450073
392, 3.450073
390, 3.450073
388, 3.450073
386, 3.450073
384, 3.450073
382, 3.450073
380, 3.450073
378, 3.450073
376, 3.450073
374, 3.450073
372, 3.450073
370, 3.450073
368, 3.450073
366, 3.450073
364, 3.450073
362, 3.450073
360, 3.450073
358, 3.450073
356, 3.450073
354, 3.450073
352, 3.450073
350, 3.450073
348, 3.450073
346, 3.450073
344, 3.450073
342, 3.450073
340, 3.450073
338, 3.450073
336, 3.450073
334, 3.450073
332, 3.450073
330, 3.450073
328, 3.450073
326, 3.450073
324, 3.450073
322, 3.450073
320, 3.450073
318, 3.450073
316, 3.450073
314, 3.450073
312, 3.450073
310, 3.450073
308, 3.450073
306, 3.450073
304, 3.450073
302, 3.450073
300, 3.450073