File: UV-Vis data/Transmission/9-2FAPbI3-8MAPbBr3.Sample.Raw.csv
nm, %T
1200, 77.7705
1198, 77.7212
1196, 77.679
1194, 77.5929
1192, 77.516
1190, 77.4613
1188, 77.3462
1186, 77.2809
1184, 77.2133
1182, 77.147
1180, 77.0943
1178, 77.034
1176, 76.9655
1174, 76.8963
1172, 76.8294
1170, 76.7698
1168, 76.7042
1166, 76.6532
1164, 76.6174
1162, 76.5255
1160, 76.4843
1158, 76.4593
1156, 76.4
1154, 76.3611
1152, 76.2949
1150, 76.2763
1148, 76.2242
1146, 76.1676
1144, 76.1377
1142, 76.1007
1140, 76.0629
1138, 76.0023
1136, 75.9725
1134, 75.9475
1132, 75.8901
1130, 75.8547
1128, 75.8628
1126, 75.8284
1124, 75.7931
1122, 75.7961
1120, 75.7661
1118, 75.7444
1116, 75.7239
1114, 75.7063
1112, 75.6919
1110, 75.6772
1108, 75.6838
1106, 75.6481
1104, 75.6483
1102, 75.6584
1100, 75.6422
1098, 75.6624
1096, 75.6557
1094, 75.6495
1092, 75.6592
1090, 75.6697
1088, 75.6671
1086, 75.6638
1084, 75.6696
1082, 75.6677
1080, 75.7133
1078, 75.7466
1076, 75.7725
1074, 75.7812
1072, 75.8194
1070, 75.8441
1068, 75.8763
1066, 75.914
1064, 75.9531
1062, 75.9991
1060, 76.0235
1058, 76.0763
1056, 76.1065
1054, 76.1489
1052, 76.2184
1050, 76.2614
1048, 76.3137
1046, 76.3666
1044, 76.4405
1042, 76.4999
1040, 76.5611
1038, 76.6454
1036, 76.7008
1034, 76.7691
1032, 76.848
1030, 76.9606
1028, 77.0274
1026, 77.1053
1024, 77.2102
1022, 77.2888
1020, 77.3603
1018, 77.4771
1016, 77.5641
1014, 77.6563
1012, 77.7581
1010, 77.8627
1008, 77.9675
1006, 78.0764
1004, 78.2001
1002, 78.3096
1000, 78.4236
998, 78.5393
996, 78.6718
994, 78.8031
992, 78.9148
990, 79.0452
988, 79.18
986, 79.3079
984, 79.4372
982, 79.5867
980, 79.7328
978, 79.8821
976, 80.0248
974, 80.1741
972, 80.3235
970, 80.4633
968, 80.6203
966, 80.7834
964, 80.9421
962, 81.1004
960, 81.2599
958, 81.4224
956, 81.6095
954, 81.7843
952, 81.9342
950, 82.1065
948, 82.2968
946, 82.4594
944, 82.6254
942, 82.8117
940, 82.9827
938, 83.1454
936, 83.3222
934, 83.5064
932, 83.6718
930, 83.8382
928, 84.0192
926, 84.1861
924, 84.3609
922, 84.5452
920, 84.7231
918, 84.9036
916, 85.0807
914, 85.2321
912, 85.3971
910, 85.5679
908, 85.7213
906, 85.8754
904, 86.0501
902, 86.1936
900, 86.3591
898, 86.5399
896, 86.6667
894, 86.7929
892, 86.9291
890, 87.0686
888, 87.1909
886, 87.3131
884, 87.4466
882, 87.5607
880, 87.6909
878, 87.8009
876, 87.886
874, 87.9715
872, 88.0474
870, 88.133
868, 88.1718
866, 88.2207
864, 88.2553
862, 88.3073
860, 88.3271
858, 88.3271
856, 88.3271
854, 88.3271
852, 88.3271
850, 88.3271
848, 88.3271
846, 88.3271
844, 88.3271
842, 88.3271
840, 88.3271
838, 88.3271
836, 88.3271
834, 88.3271
832, 88.3271
830, 88.3271
828, 88.3271
826, 88.3271
824, 88.3271
822, 88.3271
820, 88.3271
818, 88.3271
816, 88.3271
814, 88.3271
812, 88.3271
810, 88.3271
808, 88.3271
806, 88.3271
804, 88.3271
802, 88.3271
800, 88.3271
798, 88.3271
796, 88.3271
794, 88.3271
792, 88.3271
790, 88.3271
788, 88.3271
786, 88.3271
784, 88.3271
782, 88.3271
780, 88.3271
778, 88.3271
776, 88.3271
774, 88.3271
772, 88.3271
770, 88.3271
768, 88.3271
766, 88.3271
764, 88.3271
762, 88.3271
760, 88.3271
758, 88.3271
756, 88.3271
754, 88.3271
752, 88.3271
750, 88.3271
748, 88.3271
746, 88.3271
744, 88.3271
742, 88.3271
740, 88.3271
738, 88.3271
736, 88.3271
734, 88.3271
732, 88.3271
730, 88.3271
728, 88.3271
726, 88.3271
724, 88.3271
722, 88.3271
720, 88.3271
718, 88.3271
716, 88.3271
714, 88.3271
712, 88.3271
710, 88.3271
708, 88.3271
706, 88.3271
704, 88.3271
702, 88.3271
700, 88.3271
698, 88.3271
696, 88.3271
694, 88.3271
692, 88.3271
690, 88.3271
688, 88.3271
686, 88.3271
684, 88.3271
682, 88.3271
680, 88.3271
678, 88.3271
676, 88.3271
674, 88.3271
672, 88.3271
670, 88.3271
668, 88.3271
666, 89.4407
664, 90.0593
662, 90.0803
660, 90.1317
658, 90.0924
656, 90.1014
654, 90.165
652, 90.2045
650, 90.2155
648, 90.2637
646, 90.2854
644, 90.2576
642, 90.3233
640, 90.4299
638, 90.4443
636, 90.4212
634, 90.3844
632, 90.418
630, 85.4897
628, 81.7106
626, 82.8643
624, 83.5828
622, 83.5377
620, 83.5164
618, 83.1573
616, 82.5937
614, 81.857
612, 80.8619
610, 79.3986
608, 77.3697
606, 74.786
604, 71.4055
602, 67.1571
600, 61.9748
598, 56.0342
596, 49.2755
594, 42.0954
592, 34.9552
590, 28.3113
588, 22.8226
586, 18.2622
584, 15.072
582, 12.539
580, 9.106772
578, 9.116728
576, 9.958597
574, 10.0606
572, 10.0846
570, 10.2009
568, 10.3897
566, 10.626
564, 10.8625
562, 11.1398
560, 10.9635
558, 10.7616
556, 10.6739
554, 10.5992
552, 10.5516
550, 10.4474
548, 10.3394
546, 10.2481
544, 10.1201
542, 9.957873
540, 9.804956
538, 9.653924
536, 9.497551
534, 9.314260
532, 9.138873
530, 8.977902
528, 8.814648
526, 8.657902
524, 8.502808
522, 8.354847
520, 8.251931
518, 8.150423
516, 8.100265
514, 8.014931
512, 7.881525
510, 7.754587
508, 7.608876
506, 7.385923
504, 7.060714
502, 6.684023
500, 6.072531
498, 5.212148
496, 4.203924
494, 3.148910
492, 2.148156
490, 1.302713
488, 0.713629
486, 0.702952
484, 1.794477
482, 2.770140
480, 3.011558
478, 2.965055
476, 2.971268
474, 3.013337
472, 2.985777
470, 3.012605
468, 3.001221
466, 3.022971
464, 2.982009
462, 2.984099
460, 3.123991
458, 3.352039
456, 3.569130
454, 3.852577
452, 4.137751
450, 4.786199
448, 5.707101
446, 5.773828
444, 5.440434
442, 5.209293
440, 5.081816
438, 4.944353
436, 4.850057
434, 4.765911
432, 4.696866
430, 4.578091
428, 4.521225
426, 4.469560
424, 4.360675
422, 4.360756
420, 4.360756
418, 4.360756
416, 4.360756
414, 4.360756
412, 4.360756
410, 4.360756
408, 4.360756
406, 4.360756
404, 4.360756
402, 4.360756
400, 4.360756
398, 4.360756
396, 4.360756
394, 4.360756
392, 4.360756
390, 4.360756
388, 4.360756
386, 4.360756
384, 4.360756
382, 4.360756
380, 4.360756
378, 4.360756
376, 4.360756
374, 4.360756
372, 4.360756
370, 4.360756
368, 4.360756
366, 4.360756
364, 4.360756
362, 4.360756
360, 4.360756
358, 4.360756
356, 4.360756
354, 4.360756
352, 4.360756
350, 4.360756
348, 4.360756
346, 4.360756
344, 4.360756
342, 4.360756
340, 4.360756
338, 4.360756
336, 4.360756
334, 4.360756
332, 4.360756
330, 4.360756
328, 4.360756
326, 4.360756
324, 4.360756
322, 4.360756
320, 4.360756
318, 4.360756
316, 4.360756
314, 4.360756
312, 4.360756
310, 4.360756
308, 4.360756
306, 4.360756
304, 4.360756
302, 4.360756
300, 4.360756