File: UV-Vis data/Reflection/1-FAPbI3.Sample.Raw.csv
nm, %R
1100, 15.4722
1098, 15.6125
1096, 15.7405
1094, 15.9045
1092, 16.0639
1090, 16.1969
1088, 16.3562
1086, 16.5124
1084, 16.6827
1082, 16.8516
1080, 17.0322
1078, 17.2083
1076, 17.3933
1074, 17.5708
1072, 17.7645
1070, 17.9395
1068, 18.1267
1066, 18.3202
1064, 18.5103
1062, 18.7115
1060, 18.91
1058, 19.1124
1056, 19.3046
1054, 19.5068
1052, 19.7217
1050, 19.9239
1048, 20.1352
1046, 20.3434
1044, 20.5538
1042, 20.7601
1040, 20.9863
1038, 21.1945
1036, 21.4148
1034, 21.6269
1032, 21.8333
1030, 22.046
1028, 22.2498
1026, 22.4535
1024, 22.6773
1022, 22.8832
1020, 23.09
1018, 23.2953
1016, 23.5066
1014, 23.7068
1012, 23.92
1010, 24.1107
1008, 24.2975
1006, 24.4893
1004, 24.6856
1002, 24.8641
1000, 25.0472
998, 25.2243
996, 25.4048
994, 25.5815
992, 25.745
990, 25.8934
988, 26.0588
986, 26.2245
984, 26.368
982, 26.4932
980, 26.6331
978, 26.7656
976, 26.9001
974, 27.0184
972, 27.1359
970, 27.2403
968, 27.3406
966, 27.4344
964, 27.5218
962, 27.5963
960, 27.664
958, 27.7198
956, 27.7775
954, 27.8205
952, 27.8635
950, 27.8944
948, 27.9109
946, 27.9245
944, 27.9275
942, 27.9147
940, 27.8973
938, 27.8776
936, 27.8388
934, 27.7868
932, 27.73
930, 27.6657
928, 27.5971
926, 27.5119
924, 27.4135
922, 27.309
920, 27.1991
918, 27.0791
916, 26.9446
914, 26.7894
912, 26.6263
910, 26.4747
908, 26.3142
906, 26.133
904, 25.949
902, 25.752
900, 25.5256
898, 25.3056
896, 25.1008
894, 24.8729
892, 24.6364
890, 24.3935
888, 24.133
886, 23.8796
884, 23.625
882, 23.3652
880, 23.0975
878, 22.8215
876, 22.5556
874, 22.3046
872, 22.0411
870, 21.7736
868, 21.5133
866, 21.2499
864, 20.9851
862, 20.7183
860, 20.4897
858, 20.4897
856, 20.4897
854, 20.4897
852, 20.4897
850, 20.4897
848, 20.4897
846, 20.4897
844, 20.4897
842, 20.4897
840, 20.4897
838, 20.4897
836, 20.4897
834, 20.4897
832, 20.4897
830, 20.4897
828, 20.4897
826, 20.4897
824, 20.4897
822, 20.4897
820, 20.4897
818, 20.4897
816, 20.4897
814, 20.4897
812, 20.4897
810, 20.4897
808, 20.2252
806, 19.9217
804, 19.9371
802, 19.9632
800, 19.9715
798, 19.9951
796, 19.9996
794, 19.9837
792, 20.0103
790, 20.0677
788, 20.0816
786, 20.0751
784, 20.0953
782, 20.1403
780, 20.1326
778, 20.1418
776, 20.1627
774, 20.1542
772, 20.2099
770, 20.26
768, 20.2618
766, 20.2493
764, 20.2449
762, 20.2959
760, 20.3063
758, 20.3176
756, 20.3359
754, 20.3255
752, 20.329
750, 20.3421
748, 20.3597
746, 20.3765
744, 20.3753
742, 20.396
740, 20.4095
738, 20.413
736, 20.4115
734, 20.4057
732, 20.4336
730, 19.4686
728, 18.4649
726, 18.4979
724, 18.4507
722, 18.4007
720, 18.4238
718, 18.4129
716, 18.385
714, 18.3521
712, 18.2558
710, 18.2212
708, 18.2065
706, 18.1482
704, 18.6604
702, 19.3315
700, 19.2722
698, 19.1738
696, 19.0912
694, 18.9818
692, 18.8818
690, 18.7863
688, 18.7079
686, 18.6378
684, 18.6609
682, 18.6991
680, 18.6632
678, 18.627
676, 18.5606
674, 18.5491
672, 18.5739
670, 18.4896
668, 18.4387
666, 18.4157
664, 18.3903
662, 18.4006
660, 18.3915
658, 18.398
656, 18.4361
654, 18.3878
652, 18.381
650, 18.4083
648, 18.4483
646, 18.4828
644, 18.5135
642, 18.5916
640, 18.6499
638, 18.7039
636, 18.7705
634, 18.8328
632, 18.8849
630, 18.9232
628, 18.9435
626, 18.9804
624, 19.0474
622, 19.0973
620, 19.1525
618, 19.1743
616, 19.2458
614, 19.3392
612, 19.4162
610, 19.4683
608, 19.5147
606, 19.5844
604, 19.6586
602, 19.714
600, 19.7676
598, 19.7947
596, 19.8299
594, 19.8897
592, 19.9339
590, 19.9717
588, 20.0013
586, 20.0632
584, 20.1131
582, 20.1438
580, 20.1587
578, 20.1843
576, 20.2032
574, 20.2233
572, 20.285
570, 20.3487
568, 20.3734
566, 20.3792
564, 20.4136
562, 20.4506
560, 20.5324
558, 20.6728
556, 20.7794
554, 20.8638
552, 20.9202
550, 20.975
548, 21.0324
546, 21.084
544, 21.1313
542, 21.1903
540, 21.2187
538, 21.2701
536, 21.3377
534, 21.3708
532, 21.3906
530, 21.4405
528, 21.4888
526, 21.5007
524, 21.5243
522, 21.5432
520, 21.5457
518, 21.5447
516, 21.5226
514, 21.4867
512, 21.4577
510, 21.3889
508, 21.364
506, 21.3564
504, 21.3124
502, 21.3335
500, 21.3658
498, 21.4282
496, 21.509
494, 21.5659
492, 21.6163
490, 21.6334
488, 21.61
486, 21.5052
484, 21.2745
482, 21.0459
480, 20.8699
478, 20.7171
476, 20.6339
474, 20.5246
472, 20.3665
470, 20.3346
468, 20.2597
466, 20.1167
464, 20.0667
462, 20.0681
460, 20.1417
458, 20.2413
456, 20.2949
454, 20.4066
452, 20.4886
450, 20.61
448, 20.7861
446, 20.8848
444, 20.9065
442, 20.8835
440, 21.0576
438, 21.2067
436, 21.3021
434, 21.5224
432, 21.6905
430, 21.8433
428, 22.1437
426, 22.3869
424, 22.6309
422, 23.0186
420, 23.4295
418, 23.7646
416, 24.0698
414, 24.4694
412, 24.9164
410, 25.1698
408, 25.3583
406, 25.5613
404, 25.6314
402, 25.8147
400, 26.0644
398, 26.2647
396, 26.507
394, 26.6187
392, 26.731
390, 26.7379
388, 26.8271
386, 26.8493
384, 26.8333
382, 26.8081
380, 26.8114
378, 26.8114
376, 26.8114
374, 26.8114
372, 26.8114
370, 26.8114
368, 26.8114
366, 26.8114
364, 26.8114
362, 26.8114
360, 26.8114
358, 26.8114
356, 26.8114
354, 26.8114
352, 26.8114
350, 26.8114
348, 26.8114
346, 26.8114
344, 26.8114
342, 26.8114
340, 26.8114
338, 26.8114
336, 26.8114
334, 26.8114
332, 26.8114
330, 26.8114
328, 26.8114
326, 26.8114
324, 26.8114
322, 26.8114
320, 26.8114
318, 26.8114
316, 26.8114
314, 26.8114
312, 26.8114
310, 26.8114
308, 26.8114
306, 26.8114
304, 26.8114
302, 26.8114
300, 26.8114