File: UV-Vis data/Reflection/10-1FAPbI3-9MAPbBr3.Sample.Raw.csv
nm, %R
1200, 17.9219
1198, 17.9908
1196, 18.0589
1194, 18.1149
1192, 18.1761
1190, 18.2512
1188, 18.31
1186, 18.3714
1184, 18.4376
1182, 18.5046
1180, 18.5545
1178, 18.6183
1176, 18.6656
1174, 18.7289
1172, 18.7981
1170, 18.8504
1168, 18.9066
1166, 18.9569
1164, 19.0143
1162, 19.0714
1160, 19.1448
1158, 19.1992
1156, 19.235
1154, 19.3132
1152, 19.359
1150, 19.3977
1148, 19.4732
1146, 19.5197
1144, 19.561
1142, 19.6329
1140, 19.6735
1138, 19.7149
1136, 19.77
1134, 19.8156
1132, 19.8689
1130, 19.9166
1128, 19.9596
1126, 19.9991
1124, 20.0537
1122, 20.1048
1120, 20.1328
1118, 20.1743
1116, 20.2206
1114, 20.2701
1112, 20.2964
1110, 20.3438
1108, 20.3831
1106, 20.405
1104, 20.429
1102, 20.4739
1100, 20.5161
1098, 20.5478
1096, 20.5885
1094, 20.6119
1092, 20.648
1090, 20.6614
1088, 20.6997
1086, 20.7103
1084, 20.7546
1082, 20.7577
1080, 20.7713
1078, 20.8021
1076, 20.8253
1074, 20.8499
1072, 20.8714
1070, 20.8829
1068, 20.9045
1066, 20.9178
1064, 20.9375
1062, 20.9432
1060, 20.9451
1058, 20.9471
1056, 20.9568
1054, 20.9565
1052, 20.9681
1050, 20.9662
1048, 20.9696
1046, 20.9624
1044, 20.9548
1042, 20.9509
1040, 20.9409
1038, 20.928
1036, 20.9149
1034, 20.9042
1032, 20.8891
1030, 20.8654
1028, 20.8517
1026, 20.8325
1024, 20.8172
1022, 20.7863
1020, 20.7541
1018, 20.7361
1016, 20.7205
1014, 20.6909
1012, 20.6549
1010, 20.6199
1008, 20.5822
1006, 20.5397
1004, 20.5127
1002, 20.4744
1000, 20.4315
998, 20.3977
996, 20.3567
994, 20.3156
992, 20.2639
990, 20.2111
988, 20.1603
986, 20.1133
984, 20.0681
982, 20.006
980, 19.9347
978, 19.8795
976, 19.8214
974, 19.7503
972, 19.6845
970, 19.6163
968, 19.5448
966, 19.4761
964, 19.4145
962, 19.3355
960, 19.261
958, 19.189
956, 19.1063
954, 19.0293
952, 18.9598
950, 18.8899
948, 18.8099
946, 18.7293
944, 18.6504
942, 18.5657
940, 18.4847
938, 18.4003
936, 18.3075
934, 18.2251
932, 18.1363
930, 18.0362
928, 17.9369
926, 17.8483
924, 17.7536
922, 17.6568
920, 17.5695
918, 17.4831
916, 17.3868
914, 17.3041
912, 17.2115
910, 17.1222
908, 17.0366
906, 16.9356
904, 16.8424
902, 16.7618
900, 16.6753
898, 16.5826
896, 16.4902
894, 16.4009
892, 16.3127
890, 16.2306
888, 16.1298
886, 16.0482
884, 15.9746
882, 15.8953
880, 15.7994
878, 15.7264
876, 15.6354
874, 15.5631
872, 15.5027
870, 15.462
868, 15.3897
866, 15.3053
864, 15.2041
862, 15.1921
860, 15.1258
858, 15.1258
856, 15.1258
854, 15.1258
852, 15.1258
850, 15.1258
848, 15.1258
846, 15.1258
844, 15.1258
842, 15.1258
840, 17.6265
838, 18.6754
836, 18.4897
834, 18.1864
832, 17.3912
830, 16.825
828, 16.4769
826, 16.3977
824, 16.19
822, 15.9928
820, 15.903
818, 15.672
816, 15.6467
814, 15.6771
812, 15.5968
810, 15.5151
808, 15.4176
806, 15.5664
804, 15.722
802, 15.7738
800, 15.7762
798, 15.7678
796, 15.7717
794, 15.7994
792, 15.762
790, 15.746
788, 15.7338
786, 15.7044
784, 15.7499
782, 15.7441
780, 15.7485
778, 15.7892
776, 15.7956
774, 15.8279
772, 15.7998
770, 15.7978
768, 15.8556
766, 15.8692
764, 15.9117
762, 15.9415
760, 15.9108
758, 15.9014
756, 15.9293
754, 15.9139
752, 15.9184
750, 15.9298
748, 15.9692
746, 15.9868
744, 15.9901
742, 15.9929
740, 15.9943
738, 16.0063
736, 16.0092
734, 16.0372
732, 16.0417
730, 16.0271
728, 16.0278
726, 16.0672
724, 16.0752
722, 16.0948
720, 16.1163
718, 16.1094
716, 16.1019
714, 16.1418
712, 16.1359
710, 16.1282
708, 16.1375
706, 16.1645
704, 16.1687
702, 16.1565
700, 16.1725
698, 16.1792
696, 16.179
694, 20.1301
692, 22.3215
690, 22.5339
688, 22.7524
686, 22.5562
684, 22.3828
682, 22.2612
680, 22.2306
678, 22.281
676, 22.3207
674, 22.241
672, 22.2047
670, 22.17
668, 22.1076
666, 21.9813
664, 21.8754
662, 21.7877
660, 21.6749
658, 21.5373
656, 21.4166
654, 21.2861
652, 21.0797
650, 20.9165
648, 20.7601
646, 20.5423
644, 20.3925
642, 20.1644
640, 19.9232
638, 19.7154
636, 19.5111
634, 19.2914
632, 19.0422
630, 18.8424
628, 18.6567
626, 18.4823
624, 18.3028
622, 18.1323
620, 17.9382
618, 17.8087
616, 17.6575
614, 17.5286
612, 17.4858
610, 17.4366
608, 17.4459
606, 17.4982
604, 17.566
602, 17.7147
600, 17.9086
598, 18.1341
596, 18.3927
594, 18.7312
592, 19.1618
590, 19.6518
588, 20.1647
586, 20.7663
584, 21.3808
582, 22.0511
580, 22.7165
578, 23.433
576, 24.1474
574, 24.77
572, 25.2393
570, 25.4391
568, 25.2989
566, 24.6705
564, 23.6334
562, 22.4101
560, 20.7547
558, 19.3914
556, 18.5812
554, 18.0361
552, 17.6194
550, 17.2233
548, 16.8838
546, 16.6174
544, 16.4464
542, 16.3181
540, 16.2298
538, 16.2034
536, 16.2091
534, 16.2179
532, 16.265
530, 16.2992
528, 16.3421
526, 16.4179
524, 16.5094
522, 16.6212
520, 16.7456
518, 16.8933
516, 17.0606
514, 17.2682
512, 17.4733
510, 17.6562
508, 17.7871
506, 17.8399
504, 17.7339
502, 17.4891
500, 17.0681
498, 16.5834
496, 16.0545
494, 15.4734
492, 14.8803
490, 14.3596
488, 13.8993
486, 14.0676
484, 14.9067
482, 15.6089
480, 15.9566
478, 16.208
476, 16.4797
474, 16.7791
472, 17.1205
470, 17.4341
468, 17.7204
466, 17.9954
464, 18.1484
462, 18.1679
460, 18.1542
458, 18.0928
456, 17.9828
454, 17.8836
452, 17.752
450, 17.3846
448, 16.7983
446, 16.8375
444, 17.2065
442, 17.4254
440, 17.5372
438, 17.6905
436, 17.8112
434, 17.936
432, 18.0246
430, 18.1035
428, 18.1715
426, 18.314
424, 18.4523
422, 18.4679
420, 18.531
418, 18.6116
416, 18.754
414, 18.8582
412, 19.0557
410, 19.1539
408, 19.2372
406, 19.3673
404, 19.5664
402, 19.5837
400, 19.5666
398, 19.5432
396, 19.5539
394, 19.5431
392, 19.573
390, 19.6658
388, 19.5872
386, 19.4952
384, 19.4734
382, 19.4457
380, 19.4968
378, 19.38
376, 19.7374
374, 20.8273
372, 21.2511
370, 20.8477
368, 20.3418
366, 20.0275
364, 19.8401
362, 19.5405
360, 19.2585
358, 19.1064
356, 19.0165
354, 18.861
352, 18.651
350, 18.7445
348, 18.6597
346, 18.4871
344, 18.5919
342, 18.3613
340, 18.2844
338, 18.7267
336, 18.3147
334, 18.3147
332, 18.3147
330, 18.3147
328, 18.3147
326, 18.3147
324, 18.3147
322, 18.3147
320, 18.3147
318, 18.3147
316, 19.4637
314, 18.6463
312, 18.6463
310, 18.6463
308, 18.6463
306, 18.6463
304, 18.6463
302, 18.6463
300, 18.6463