File: UV-Vis data/Reflection/2-FAPbI3 MAPbBr3 9-1.Sample.Raw.csv
nm, %R
1100, 10.6876
1098, 10.8235
1096, 10.9731
1094, 11.1233
1092, 11.2909
1090, 11.4742
1088, 11.6436
1086, 11.8317
1084, 12.0598
1082, 12.2628
1080, 12.4787
1078, 12.6939
1076, 12.9338
1074, 13.1705
1072, 13.4297
1070, 13.6775
1068, 13.9376
1066, 14.2081
1064, 14.4822
1062, 14.7625
1060, 15.0441
1058, 15.3406
1056, 15.6279
1054, 15.9293
1052, 16.2491
1050, 16.562
1048, 16.8841
1046, 17.2161
1044, 17.5475
1042, 17.8712
1040, 18.2157
1038, 18.5476
1036, 18.8953
1034, 19.2375
1032, 19.5823
1030, 19.9248
1028, 20.2714
1026, 20.6213
1024, 20.9819
1022, 21.318
1020, 21.6791
1018, 22.0357
1016, 22.394
1014, 22.7437
1012, 23.1049
1010, 23.4517
1008, 23.7835
1006, 24.1232
1004, 24.4775
1002, 24.8155
1000, 25.1527
998, 25.4689
996, 25.8114
994, 26.1372
992, 26.4509
990, 26.7686
988, 27.0818
986, 27.3848
984, 27.6798
982, 27.9565
980, 28.2694
978, 28.5409
976, 28.8232
974, 29.0929
972, 29.3518
970, 29.6042
968, 29.8538
966, 30.0927
964, 30.3183
962, 30.5363
960, 30.7405
958, 30.9232
956, 31.1223
954, 31.2911
952, 31.4591
950, 31.6202
948, 31.757
946, 31.893
944, 32.0224
942, 32.1287
940, 32.2247
938, 32.2965
936, 32.3747
934, 32.4187
932, 32.4512
930, 32.4914
928, 32.517
926, 32.526
924, 32.5092
922, 32.4988
920, 32.4623
918, 32.4016
916, 32.3314
914, 32.2485
912, 32.1357
910, 32.0018
908, 31.8715
906, 31.7205
904, 31.5403
902, 31.3539
900, 31.1296
898, 30.8815
896, 30.6364
894, 30.385
892, 30.1125
890, 29.8058
888, 29.474
886, 29.1182
884, 28.7513
882, 28.3754
880, 27.9648
878, 27.5261
876, 27.0729
874, 26.6073
872, 26.1187
870, 25.6145
868, 25.1019
866, 24.5511
864, 23.9789
862, 23.4089
860, 22.8258
858, 22.8258
856, 22.8258
854, 22.8258
852, 22.8258
850, 22.8258
848, 22.8258
846, 22.8258
844, 22.8258
842, 22.8258
840, 22.8258
838, 22.8258
836, 22.8258
834, 22.8258
832, 22.8258
830, 22.8258
828, 22.8258
826, 22.8258
824, 22.8258
822, 22.8258
820, 22.8258
818, 22.8258
816, 22.8258
814, 22.8258
812, 22.8258
810, 22.8258
808, 22.5312
806, 22.1931
804, 22.2102
802, 22.2393
800, 22.2486
798, 22.2748
796, 22.2798
794, 22.2621
792, 22.2918
790, 22.3558
788, 22.3712
786, 22.364
784, 22.3865
782, 22.4366
780, 22.428
778, 22.4382
776, 22.4616
774, 22.4522
772, 22.5142
770, 22.57
768, 22.572
766, 22.5581
764, 22.5532
762, 22.61
760, 22.6215
758, 22.6342
756, 22.6545
754, 22.6429
752, 22.6468
750, 22.6614
748, 22.681
746, 22.6997
744, 22.6984
742, 22.7214
740, 22.7365
738, 22.7404
736, 22.7388
734, 22.7323
732, 22.7634
730, 22.7796
728, 21.5057
726, 20.4559
724, 20.6133
722, 20.7095
720, 20.8678
718, 20.993
716, 21.1341
714, 21.2294
712, 21.2217
710, 21.2577
708, 21.316
706, 21.3411
704, 21.914
702, 22.6141
700, 22.4902
698, 22.3735
696, 22.3266
694, 22.2305
692, 22.1654
690, 21.9766
688, 21.7643
686, 21.5926
684, 21.4641
682, 21.3132
680, 21.0499
678, 20.8165
676, 20.6113
674, 20.431
672, 20.1657
670, 19.8112
668, 19.5253
666, 19.2161
664, 18.9562
662, 18.7309
660, 18.4609
658, 18.1942
656, 17.9599
654, 17.6753
652, 17.4563
650, 17.2788
648, 17.1363
646, 17.0038
644, 16.8531
642, 16.7745
640, 16.7453
638, 16.7131
636, 16.6659
634, 16.6791
632, 16.7924
630, 16.8532
628, 16.9434
626, 17.0997
624, 17.2601
622, 17.4566
620, 17.6472
618, 17.8141
616, 18.0385
614, 18.2918
612, 18.523
610, 18.7463
608, 18.9858
606, 19.2131
604, 19.4416
602, 19.6526
600, 19.8751
598, 20.0962
596, 20.262
594, 20.4536
592, 20.6007
590, 20.7203
588, 20.8162
586, 20.877
584, 20.924
582, 20.9204
580, 20.8744
578, 20.8256
576, 20.7786
574, 20.7479
572, 20.7239
570, 20.7032
568, 20.6557
566, 20.6059
564, 20.5921
562, 20.5765
560, 20.6043
558, 20.7041
556, 20.773
554, 20.8359
552, 20.9107
550, 20.9921
548, 21.1127
546, 21.2481
544, 21.3762
542, 21.5189
540, 21.6173
538, 21.7077
536, 21.7501
534, 21.7232
532, 21.6783
530, 21.6371
528, 21.5827
526, 21.4999
524, 21.4043
522, 21.3295
520, 21.2495
518, 21.1406
516, 21.0535
514, 20.9821
512, 20.9013
510, 20.8198
508, 20.8053
506, 20.7829
504, 20.7374
502, 20.7816
500, 20.8456
498, 20.9621
496, 21.0437
494, 21.1125
492, 21.21
490, 21.266
488, 21.2694
486, 21.1726
484, 20.9589
482, 20.7619
480, 20.6609
478, 20.5952
476, 20.5304
474, 20.4151
472, 20.2803
470, 20.281
468, 20.2229
466, 20.1048
464, 20.0546
462, 20.0168
460, 20.0662
458, 20.1498
456, 20.2014
454, 20.3157
452, 20.4178
450, 20.5183
448, 20.6676
446, 20.7686
444, 20.7832
442, 20.7058
440, 20.8191
438, 20.9552
436, 21.025
434, 21.1564
432, 21.2758
430, 21.4195
428, 21.6884
426, 21.8853
424, 22.091
422, 22.4095
420, 22.7227
418, 23.0572
416, 23.2956
414, 23.5594
412, 24.0097
410, 24.2437
408, 24.3551
406, 24.4956
404, 24.5031
402, 24.6147
400, 24.8409
398, 24.9422
396, 25.1388
394, 25.2753
392, 25.3526
390, 25.4712
388, 25.6139
386, 25.6351
384, 25.6198
382, 25.5957
380, 25.5989
378, 25.5989
376, 25.5989
374, 25.5989
372, 25.5989
370, 25.5989
368, 25.5989
366, 25.5989
364, 25.5989
362, 25.5989
360, 25.5989
358, 25.5989
356, 25.5989
354, 25.5989
352, 25.5989
350, 25.5989
348, 25.5989
346, 25.5989
344, 25.5989
342, 25.5989
340, 25.5989
338, 25.5989
336, 25.5989
334, 25.5989
332, 25.5989
330, 25.5989
328, 25.5989
326, 25.5989
324, 25.5989
322, 25.5989
320, 25.5989
318, 25.5989
316, 25.5989
314, 25.5989
312, 25.5989
310, 25.5989
308, 25.5989
306, 25.5989
304, 25.5989
302, 25.5989
300, 25.5989