File: UV-Vis data/Reflection/3-FAPbI3 MAPbBr3 8-2.Sample.Raw.csv
nm, %R
1100, 12.047
1098, 11.884
1096, 11.7381
1094, 11.5902
1092, 11.4391
1090, 11.3065
1088, 11.1764
1086, 11.0419
1084, 10.9308
1082, 10.8126
1080, 10.7024
1078, 10.5996
1076, 10.5258
1074, 10.4435
1072, 10.3792
1070, 10.3016
1068, 10.2448
1066, 10.1936
1064, 10.1425
1062, 10.1156
1060, 10.0853
1058, 10.0696
1056, 10.0523
1054, 10.0463
1052, 10.0661
1050, 10.0887
1048, 10.1183
1046, 10.1606
1044, 10.2105
1042, 10.2665
1040, 10.3407
1038, 10.4199
1036, 10.5077
1034, 10.6024
1032, 10.71
1030, 10.8217
1028, 10.9485
1026, 11.0898
1024, 11.244
1022, 11.4025
1020, 11.5751
1018, 11.7476
1016, 11.9417
1014, 12.137
1012, 12.3467
1010, 12.5621
1008, 12.7786
1006, 13.0082
1004, 13.2558
1002, 13.5125
1000, 13.77
998, 14.0383
996, 14.3103
994, 14.5879
992, 14.8793
990, 15.1677
988, 15.4767
986, 15.7787
984, 16.0878
982, 16.3963
980, 16.7202
978, 17.0489
976, 17.3864
974, 17.7278
972, 18.0737
970, 18.4209
968, 18.7752
966, 19.1323
964, 19.4937
962, 19.857
960, 20.2162
958, 20.5719
956, 20.9396
954, 21.2981
952, 21.6656
950, 22.0361
948, 22.3928
946, 22.7608
944, 23.1192
942, 23.4689
940, 23.8309
938, 24.1937
936, 24.5266
934, 24.8587
932, 25.1947
930, 25.5293
928, 25.8651
926, 26.1913
924, 26.5066
922, 26.8174
920, 27.1258
918, 27.4334
916, 27.7319
914, 28.0154
912, 28.288
910, 28.5519
908, 28.8265
906, 29.0806
904, 29.3194
902, 29.5396
900, 29.7603
898, 29.9608
896, 30.1656
894, 30.3708
892, 30.5759
890, 30.7444
888, 30.8876
886, 31.0229
884, 31.147
882, 31.2739
880, 31.3731
878, 31.4391
876, 31.4993
874, 31.5473
872, 31.591
870, 31.635
868, 31.6363
866, 31.5889
864, 31.5315
862, 31.4776
860, 31.4133
858, 31.4133
856, 31.4133
854, 31.4133
852, 31.4133
850, 31.4133
848, 31.4133
846, 31.4133
844, 31.4133
842, 31.4133
840, 31.4133
838, 31.4133
836, 31.4133
834, 31.4133
832, 31.4133
830, 31.4133
828, 31.4133
826, 31.4133
824, 31.4133
822, 31.4133
820, 29.096
818, 26.2296
816, 25.9903
814, 25.5831
812, 25.0742
810, 24.7262
808, 24.1011
806, 23.1152
804, 22.2656
802, 21.5375
800, 20.7894
798, 20.121
796, 19.5063
794, 18.7684
792, 18.0483
790, 17.4071
788, 16.6733
786, 15.9694
784, 15.2677
782, 14.5553
780, 13.9326
778, 13.3428
776, 12.7971
774, 12.2999
772, 11.9067
770, 11.5969
768, 11.3239
766, 11.0809
764, 11.0245
762, 11.1043
760, 11.1974
758, 11.4184
756, 11.5895
754, 11.8218
752, 12.038
750, 12.2541
748, 12.5248
746, 12.7105
744, 12.8551
742, 13.0703
740, 13.2299
738, 13.3882
736, 13.5741
734, 13.7826
732, 13.9548
730, 14.1721
728, 14.4135
726, 14.6001
724, 14.817
722, 15.0491
720, 15.289
718, 15.6027
716, 15.8813
714, 16.1731
712, 16.4279
710, 16.6755
708, 16.9843
706, 17.2905
704, 18.2166
702, 19.2228
700, 19.3798
698, 19.5721
696, 19.8803
694, 20.064
692, 20.2225
690, 20.3587
688, 20.4055
686, 20.6727
684, 21.1124
682, 21.3709
680, 21.4762
678, 21.6111
676, 21.7284
674, 21.8503
672, 21.922
670, 21.9293
668, 21.9733
666, 21.9614
664, 21.9166
662, 21.9012
660, 21.8449
658, 21.7386
656, 21.665
654, 21.518
652, 21.3456
650, 21.211
648, 21.0499
646, 20.8229
644, 20.5807
642, 20.4032
640, 20.2134
638, 19.9624
636, 19.7084
634, 19.4664
632, 19.2385
630, 18.9897
628, 18.7444
626, 18.5286
624, 18.3215
622, 18.1573
620, 17.9858
618, 17.8089
616, 17.674
614, 17.5848
612, 17.531
610, 17.4774
608, 17.45
606, 17.4524
604, 17.4896
602, 17.5393
600, 17.5926
598, 17.6692
596, 17.7684
594, 17.9009
592, 18.0217
590, 18.1528
588, 18.3023
586, 18.463
584, 18.6396
582, 18.8061
580, 18.9772
578, 19.1561
576, 19.3049
574, 19.4214
572, 19.5552
570, 19.6648
568, 19.6962
566, 19.681
564, 19.6399
562, 19.5645
560, 19.6757
558, 19.995
556, 20.1395
554, 20.1734
552, 20.2029
550, 20.2276
548, 20.2685
546, 20.3089
544, 20.3258
542, 20.3758
540, 20.4204
538, 20.4635
536, 20.5095
534, 20.5357
532, 20.5579
530, 20.5993
528, 20.6133
526, 20.5849
524, 20.5403
522, 20.4916
520, 20.4201
518, 20.2852
516, 20.1196
514, 19.958
512, 19.7897
510, 19.6279
508, 19.5428
506, 19.5148
504, 19.5373
502, 19.7029
500, 19.9657
498, 20.3139
496, 20.6957
494, 21.065
492, 21.4367
490, 21.7429
488, 21.934
486, 21.7658
484, 21.1831
482, 20.7036
480, 20.4774
478, 20.3046
476, 20.1467
474, 19.9195
472, 19.6586
470, 19.5273
468, 19.3463
466, 19.1314
464, 19.0484
462, 19.0154
460, 19.0687
458, 19.1606
456, 19.2268
454, 19.3878
452, 19.5235
450, 19.829
448, 20.21
446, 20.191
444, 19.9984
442, 19.8501
440, 19.9233
438, 20.0003
436, 19.9489
434, 19.9924
432, 20.0457
430, 20.1268
428, 20.3263
426, 20.461
424, 20.5288
422, 20.7298
420, 21.0259
418, 21.2679
416, 21.4311
414, 21.6765
412, 22.0134
410, 22.1704
408, 22.2454
406, 22.3232
404, 22.2743
402, 22.3886
400, 22.6169
398, 22.7098
396, 22.8551
394, 22.9355
392, 23.0381
390, 23.1068
388, 23.2538
386, 23.4235
384, 23.4987
382, 23.5376
380, 23.6329
378, 23.5261
376, 23.3632
374, 23.1681
372, 22.9651
370, 22.778
368, 22.6311
366, 22.5483
364, 23.0355
362, 23.0355
360, 23.0355
358, 23.0355
356, 23.0355
354, 23.0355
352, 23.0355
350, 23.0355
348, 23.0355
346, 23.0355
344, 23.0355
342, 23.0355
340, 23.0355
338, 23.0355
336, 23.0355
334, 23.0355
332, 23.0355
330, 23.0355
328, 23.0355
326, 23.0355
324, 23.0355
322, 23.0355
320, 23.0355
318, 23.0355
316, 23.0355
314, 23.0355
312, 23.0355
310, 23.0355
308, 23.0355
306, 23.0355
304, 23.0355
302, 23.0355
300, 23.0355