File: UV-Vis data/Reflection/4-FAPbI3 MAPbBr3 7-3.Sample.Raw.csv
nm, %R
1100, 17.7243
1098, 17.5437
1096, 17.3536
1094, 17.1824
1092, 16.9867
1090, 16.7854
1088, 16.5969
1086, 16.4212
1084, 16.2502
1082, 16.0604
1080, 15.8777
1078, 15.7019
1076, 15.5378
1074, 15.373
1072, 15.2103
1070, 15.0329
1068, 14.8718
1066, 14.7124
1064, 14.5452
1062, 14.4021
1060, 14.2468
1058, 14.1117
1056, 13.9644
1054, 13.825
1052, 13.6899
1050, 13.5587
1048, 13.4341
1046, 13.3109
1044, 13.192
1042, 13.0741
1040, 12.9641
1038, 12.8602
1036, 12.7643
1034, 12.6723
1032, 12.5814
1030, 12.4986
1028, 12.4231
1026, 12.3584
1024, 12.2998
1022, 12.242
1020, 12.1929
1018, 12.1467
1016, 12.1167
1014, 12.0944
1012, 12.0736
1010, 12.0532
1008, 12.0483
1006, 12.0476
1004, 12.061
1002, 12.0891
1000, 12.1147
998, 12.1402
996, 12.1855
994, 12.2309
992, 12.2903
990, 12.3478
988, 12.425
986, 12.5146
984, 12.5931
982, 12.685
980, 12.7962
978, 12.9191
976, 13.0442
974, 13.1771
972, 13.3197
970, 13.4595
968, 13.6179
966, 13.7869
964, 13.9597
962, 14.1403
960, 14.3232
958, 14.5157
956, 14.719
954, 14.9235
952, 15.1423
950, 15.3542
948, 15.5865
946, 15.821
944, 16.0664
942, 16.3072
940, 16.5546
938, 16.8097
936, 17.0593
934, 17.3052
932, 17.5858
930, 17.8586
928, 18.135
926, 18.4193
924, 18.6988
922, 18.9791
920, 19.2708
918, 19.5651
916, 19.8526
914, 20.1363
912, 20.4364
910, 20.7311
908, 21.0401
906, 21.3325
904, 21.6346
902, 21.9242
900, 22.2024
898, 22.4937
896, 22.7866
894, 23.081
892, 23.3658
890, 23.6394
888, 23.929
886, 24.2032
884, 24.487
882, 24.7648
880, 25.0241
878, 25.2819
876, 25.5317
874, 25.7923
872, 26.0188
870, 26.2525
868, 26.498
866, 26.6987
864, 26.9061
862, 27.1183
860, 27.3222
858, 27.3222
856, 27.3222
854, 27.3222
852, 27.3222
850, 27.3222
848, 27.3222
846, 27.3222
844, 27.3222
842, 27.3222
840, 27.3222
838, 27.3222
836, 27.3222
834, 27.3222
832, 27.3222
830, 27.3222
828, 27.3222
826, 27.3222
824, 27.3222
822, 27.3222
820, 27.3222
818, 27.3222
816, 27.3222
814, 27.3222
812, 27.6733
810, 28.0639
808, 27.981
806, 27.4083
804, 26.9057
802, 26.7544
800, 26.5972
798, 26.4258
796, 26.2058
794, 25.9382
792, 25.7134
790, 25.4415
788, 25.1963
786, 25.0477
784, 24.7937
782, 24.3509
780, 23.9085
778, 23.6144
776, 23.3267
774, 22.8345
772, 22.5146
770, 22.2105
768, 21.7791
766, 21.2517
764, 20.6164
762, 20.2112
760, 19.7258
758, 19.215
756, 18.688
754, 18.1902
752, 17.719
750, 17.2242
748, 16.7354
746, 16.2341
744, 15.8117
742, 15.4369
740, 15.1358
738, 14.9265
736, 14.7309
734, 14.6043
732, 14.5776
730, 14.5397
728, 14.5886
726, 14.7152
724, 14.7785
722, 14.8317
720, 14.9486
718, 15.0279
716, 15.0657
714, 15.0784
712, 15.0428
710, 15.0704
708, 15.0821
706, 15.0702
704, 15.7611
702, 16.5549
700, 16.4829
698, 16.4392
696, 16.56
694, 16.5266
692, 16.4799
690, 16.4891
688, 16.4421
686, 16.5923
684, 16.9447
682, 17.1734
680, 17.2213
678, 17.3088
676, 17.4775
674, 17.6527
672, 17.7706
670, 17.8616
668, 18.0083
666, 18.1203
664, 18.2187
662, 18.3747
660, 18.5025
658, 18.6075
656, 18.7418
654, 18.8149
652, 18.8949
650, 19.036
648, 19.1854
646, 19.2407
644, 19.2923
642, 19.4205
640, 19.5014
638, 19.5629
636, 19.6317
634, 19.6671
632, 19.7088
630, 19.7027
628, 19.6751
626, 19.6647
624, 19.6236
622, 19.603
620, 19.5677
618, 19.4861
616, 19.4292
614, 19.3969
612, 19.3392
610, 19.2123
608, 19.1084
606, 19.0277
604, 18.9372
602, 18.8393
600, 18.7372
598, 18.6324
596, 18.5288
594, 18.4401
592, 18.3572
590, 18.2931
588, 18.2286
586, 18.1664
584, 18.1055
582, 18.0541
580, 18.0198
578, 18.0008
576, 17.9984
574, 17.9967
572, 18.0079
570, 18.0401
568, 18.039
566, 18.0363
564, 18.0508
562, 18.011
560, 18.2079
558, 18.6129
556, 18.8306
554, 18.9474
552, 19.0089
550, 19.0645
548, 19.1474
546, 19.204
544, 19.2348
542, 19.282
540, 19.3191
538, 19.3655
536, 19.4167
534, 19.445
532, 19.4598
530, 19.5141
528, 19.5638
526, 19.5683
524, 19.5793
522, 19.5674
520, 19.5353
518, 19.4771
516, 19.3727
514, 19.2455
512, 19.1119
510, 18.9777
508, 18.9169
506, 18.9266
504, 18.9797
502, 19.127
500, 19.3826
498, 19.7432
496, 20.124
494, 20.4857
492, 20.8882
490, 21.2158
488, 21.4061
486, 21.2602
484, 20.7041
482, 20.2621
480, 20.0586
478, 19.9101
476, 19.7862
474, 19.5878
472, 19.3482
470, 19.231
468, 19.0707
466, 18.8571
464, 18.7606
462, 18.7313
460, 18.7709
458, 18.8407
456, 18.8978
454, 19.0481
452, 19.1779
450, 19.4218
448, 19.7171
446, 19.676
444, 19.4422
442, 19.2218
440, 19.2381
438, 19.2578
436, 19.1785
434, 19.1659
432, 19.1841
430, 19.2222
428, 19.3521
426, 19.4129
424, 19.4516
422, 19.5913
420, 19.8336
418, 20.0861
416, 20.1992
414, 20.3865
412, 20.675
410, 20.8164
408, 20.8865
406, 20.9496
404, 20.8798
402, 20.9852
400, 21.2341
398, 21.3308
396, 21.5478
394, 21.7193
392, 21.8572
390, 21.9651
388, 22.1253
386, 22.3044
384, 22.3928
382, 22.5317
380, 22.6425
378, 22.6425
376, 22.6425
374, 22.6425
372, 22.6425
370, 22.6425
368, 22.6425
366, 22.6425
364, 22.6425
362, 22.6425
360, 22.6425
358, 22.6425
356, 22.6425
354, 22.6425
352, 22.6425
350, 22.6425
348, 22.6425
346, 22.6425
344, 22.6425
342, 22.6425
340, 22.6425
338, 22.6425
336, 22.6425
334, 22.6425
332, 22.6425
330, 22.6425
328, 22.6425
326, 22.6425
324, 22.6425
322, 22.6425
320, 22.6425
318, 22.6425
316, 22.6425
314, 22.6425
312, 22.6425
310, 22.6425
308, 22.6425
306, 22.6425
304, 22.6425
302, 22.6425
300, 22.6425