File: UV-Vis data/Reflection/5-FAPbI3 MAPbBr3 6-4.Sample.Raw.csv
nm, %R
1100, 20.2864
1098, 20.082
1096, 19.876
1094, 19.6826
1092, 19.4658
1090, 19.2413
1088, 19.0303
1086, 18.815
1084, 18.6093
1082, 18.3882
1080, 18.1681
1078, 17.9591
1076, 17.757
1074, 17.55
1072, 17.3445
1070, 17.1277
1068, 16.9118
1066, 16.7061
1064, 16.4898
1062, 16.2877
1060, 16.0801
1058, 15.8689
1056, 15.6661
1054, 15.4757
1052, 15.2837
1050, 15.0842
1048, 14.9036
1046, 14.702
1044, 14.4989
1042, 14.3106
1040, 14.1299
1038, 13.9492
1036, 13.7756
1034, 13.5963
1032, 13.4166
1030, 13.2487
1028, 13.0857
1026, 12.9287
1024, 12.7791
1022, 12.6289
1020, 12.4799
1018, 12.3396
1016, 12.215
1014, 12.0881
1012, 11.9698
1010, 11.8522
1008, 11.7324
1006, 11.6313
1004, 11.5403
1002, 11.4539
1000, 11.3771
998, 11.3022
996, 11.2472
994, 11.2005
992, 11.162
990, 11.1113
988, 11.0791
986, 11.0648
984, 11.0579
982, 11.05
980, 11.056
978, 11.0728
976, 11.1071
974, 11.1433
972, 11.1934
970, 11.2487
968, 11.325
966, 11.4093
964, 11.4941
962, 11.5945
960, 11.7042
958, 11.8213
956, 11.9547
954, 12.0893
952, 12.2431
950, 12.3985
948, 12.5637
946, 12.7423
944, 12.9409
942, 13.1328
940, 13.3331
938, 13.5476
936, 13.7687
934, 13.9958
932, 14.2404
930, 14.4932
928, 14.7523
926, 15.019
924, 15.3005
922, 15.587
920, 15.8836
918, 16.1836
916, 16.4827
914, 16.7862
912, 17.1011
910, 17.4155
908, 17.7466
906, 18.0771
904, 18.4078
902, 18.7387
900, 19.0646
898, 19.4079
896, 19.7587
894, 20.1039
892, 20.4592
890, 20.8147
888, 21.169
886, 21.5432
884, 21.9136
882, 22.2733
880, 22.6316
878, 22.9712
876, 23.3213
874, 23.6858
872, 24.0444
870, 24.4003
868, 24.7458
866, 25.055
864, 25.3812
862, 25.7239
860, 26.0493
858, 26.0493
856, 26.0493
854, 26.0493
852, 26.0493
850, 26.0493
848, 26.0493
846, 26.0493
844, 26.0493
842, 26.0493
840, 26.0493
838, 26.0493
836, 26.0493
834, 26.0493
832, 26.0493
830, 26.0493
828, 26.0493
826, 26.0493
824, 26.0493
822, 26.0493
820, 26.0493
818, 26.0493
816, 26.0493
814, 26.0493
812, 26.0493
810, 26.0493
808, 25.713
806, 25.3272
804, 25.3467
802, 25.3799
800, 25.3904
798, 25.4204
796, 25.4262
794, 25.4059
792, 25.4398
790, 25.5128
788, 25.5304
786, 25.5221
784, 25.5478
782, 25.6051
780, 25.5953
778, 25.6069
776, 25.6336
774, 25.6228
772, 25.6936
770, 25.7572
768, 25.7596
766, 25.2059
764, 24.1808
762, 23.7694
760, 23.3059
758, 22.9181
756, 22.3301
754, 21.6388
752, 21.0669
750, 20.5328
748, 19.9689
746, 19.3885
744, 18.7928
742, 18.073
740, 17.4082
738, 16.8308
736, 16.174
734, 15.5188
732, 14.9167
730, 14.3608
728, 13.834
726, 13.3842
724, 13.0175
722, 12.8173
720, 12.699
718, 12.6903
716, 12.7763
714, 12.9471
712, 13.2506
710, 13.6895
708, 14.1174
706, 14.5298
704, 15.5827
702, 16.6806
700, 16.8164
698, 16.882
696, 17.0368
694, 17.0546
692, 17.0048
690, 16.8674
688, 16.68
686, 16.6823
684, 16.8521
682, 16.9325
680, 16.8889
678, 16.905
676, 17.007
674, 17.1032
672, 17.1893
670, 17.2587
668, 17.3195
666, 17.373
664, 17.4642
662, 17.6082
660, 17.7216
658, 17.8246
656, 17.9463
654, 18.0309
652, 18.1627
650, 18.3054
648, 18.4436
646, 18.5134
644, 18.6034
642, 18.759
640, 18.892
638, 18.9624
636, 19.0432
634, 19.1199
632, 19.1756
630, 19.212
628, 19.2602
626, 19.2871
624, 19.2902
622, 19.3106
620, 19.3007
618, 19.2539
616, 19.2492
614, 19.2475
612, 19.1925
610, 19.1081
608, 19.045
606, 18.9791
604, 18.9278
602, 18.875
600, 18.7968
598, 18.6813
596, 18.5543
594, 18.4859
592, 18.3986
590, 18.3082
588, 18.2269
586, 18.1468
584, 18.0926
582, 18.0318
580, 17.9731
578, 17.9172
576, 17.8633
574, 17.8349
572, 17.8249
570, 17.8193
568, 17.7844
566, 17.7561
564, 17.7437
562, 17.7177
560, 17.839
558, 18.082
556, 18.2207
554, 18.3017
552, 18.3688
550, 18.431
548, 18.5134
546, 18.5968
544, 18.672
542, 18.7488
540, 18.8038
538, 18.8704
536, 18.947
534, 18.9999
532, 19.0441
530, 19.1132
528, 19.164
526, 19.174
524, 19.1958
522, 19.2165
520, 19.2332
518, 19.21
516, 19.1665
514, 19.1316
512, 19.0749
510, 19.0182
508, 19.0364
506, 19.0752
504, 19.1184
502, 19.2834
500, 19.5276
498, 19.8179
496, 20.1036
494, 20.3735
492, 20.6957
490, 20.9395
488, 21.0982
486, 21.0171
484, 20.658
482, 20.3903
480, 20.2778
478, 20.1824
476, 20.1045
474, 19.9718
472, 19.7977
470, 19.7428
468, 19.6614
466, 19.5109
464, 19.4647
462, 19.4413
460, 19.4561
458, 19.5212
456, 19.5433
454, 19.6305
452, 19.6844
450, 19.8251
448, 20.0175
446, 19.9694
444, 19.7876
442, 19.5867
440, 19.5649
438, 19.5713
436, 19.4855
434, 19.439
432, 19.4126
430, 19.3822
428, 19.4834
426, 19.547
424, 19.5748
422, 19.6888
420, 19.8757
418, 20.0968
416, 20.2096
414, 20.3707
412, 20.6657
410, 20.883
408, 20.9339
406, 20.9268
404, 20.865
402, 21.0171
400, 21.2904
398, 21.3755
396, 21.5921
394, 21.8463
392, 22.1005
390, 22.3273
388, 22.5071
386, 22.6861
384, 22.9113
382, 23.0259
380, 23.1762
378, 23.1762
376, 23.1762
374, 23.1762
372, 23.1762
370, 23.1762
368, 23.1762
366, 23.1762
364, 23.1762
362, 23.1762
360, 23.1762
358, 23.1762
356, 23.1762
354, 23.1762
352, 23.1762
350, 23.1762
348, 23.1762
346, 23.1762
344, 23.1762
342, 23.1762
340, 23.1762
338, 23.1762
336, 23.1762
334, 23.1762
332, 23.1762
330, 23.1762
328, 23.1762
326, 23.1762
324, 23.1762
322, 23.1762
320, 23.1762
318, 23.1762
316, 23.1762
314, 23.1762
312, 23.1762
310, 23.1762
308, 23.1762
306, 23.1762
304, 23.1762
302, 23.1762
300, 23.1762