File: UV-Vis data/Reflection/6-FAPbI3 MAPbBr3 5-5.Sample.Raw.csv
nm, %R
1100, 23.038
1098, 22.9242
1096, 22.8087
1094, 22.7136
1092, 22.61
1090, 22.4622
1088, 22.3483
1086, 22.2116
1084, 22.1169
1082, 21.979
1080, 21.8479
1078, 21.7286
1076, 21.6004
1074, 21.4667
1072, 21.3422
1070, 21.1969
1068, 21.0509
1066, 20.906
1064, 20.7626
1062, 20.6215
1060, 20.4818
1058, 20.3299
1056, 20.1745
1054, 20.0257
1052, 19.8728
1050, 19.7128
1048, 19.5621
1046, 19.4074
1044, 19.243
1042, 19.0934
1040, 18.9403
1038, 18.7746
1036, 18.6258
1034, 18.4799
1032, 18.3141
1030, 18.148
1028, 17.992
1026, 17.8355
1024, 17.6964
1022, 17.545
1020, 17.3921
1018, 17.2338
1016, 17.0847
1014, 16.9301
1012, 16.7786
1010, 16.6197
1008, 16.4636
1006, 16.3043
1004, 16.1623
1002, 16.0144
1000, 15.8722
998, 15.7279
996, 15.59
994, 15.4601
992, 15.3216
990, 15.1785
988, 15.0648
986, 14.9428
984, 14.8184
982, 14.68
980, 14.5665
978, 14.4596
976, 14.3588
974, 14.2545
972, 14.1515
970, 14.057
968, 13.9736
966, 13.8878
964, 13.8087
962, 13.7349
960, 13.6636
958, 13.592
956, 13.534
954, 13.4778
952, 13.4339
950, 13.3917
948, 13.3531
946, 13.3238
944, 13.3122
942, 13.3024
940, 13.2941
938, 13.2924
936, 13.3007
934, 13.3051
932, 13.327
930, 13.3625
928, 13.3935
926, 13.428
924, 13.4854
922, 13.5442
920, 13.6075
918, 13.6855
916, 13.7693
914, 13.8431
912, 13.9376
910, 14.0427
908, 14.1532
906, 14.2629
904, 14.3778
902, 14.5152
900, 14.6462
898, 14.7772
896, 14.9315
894, 15.0972
892, 15.2716
890, 15.4437
888, 15.6084
886, 15.793
884, 15.9863
882, 16.1891
880, 16.3835
878, 16.5744
876, 16.7905
874, 17.0156
872, 17.2488
870, 17.4789
868, 17.7182
866, 17.9453
864, 18.1666
862, 18.4145
860, 18.6844
858, 18.6844
856, 18.6844
854, 18.6844
852, 18.6844
850, 18.6844
848, 18.6844
846, 18.6844
844, 18.6844
842, 18.6844
840, 18.6844
838, 18.6844
836, 18.6844
834, 18.6844
832, 18.6844
830, 18.6844
828, 18.6844
826, 18.6844
824, 18.6844
822, 18.6844
820, 18.6844
818, 18.6844
816, 18.6844
814, 18.6844
812, 18.6844
810, 18.6844
808, 18.4432
806, 18.1665
804, 18.1805
802, 18.2043
800, 18.2119
798, 18.2334
796, 18.2375
794, 18.223
792, 18.2473
790, 18.2996
788, 18.3123
786, 18.3063
784, 18.3248
782, 18.3658
780, 18.3588
778, 18.3671
776, 18.3863
774, 18.3785
772, 18.4293
770, 18.475
768, 18.4766
766, 18.4652
764, 18.4612
762, 18.5077
760, 18.5171
758, 18.5275
756, 18.5442
754, 18.5347
752, 18.5379
750, 18.5498
748, 18.5659
746, 18.5812
744, 18.5801
742, 18.599
740, 18.6113
738, 18.6145
736, 18.6131
734, 18.6078
732, 18.6333
730, 18.6466
728, 18.6572
726, 18.6681
724, 18.6628
722, 18.6659
720, 18.6805
718, 18.6882
716, 18.6955
714, 18.7069
712, 19.1699
710, 19.4794
708, 19.2372
706, 18.9505
704, 19.2995
702, 19.782
700, 19.5129
698, 19.2335
696, 19.0262
694, 18.8671
692, 18.6965
690, 18.4754
688, 18.3444
686, 18.2138
684, 11.2074
682, 9.873989
680, 24.3007
678, 27.1034
676, 20.6729
674, 19.3717
672, 19.125
670, 19.0557
668, 19.0496
666, 18.9722
664, 18.8109
662, 18.6601
660, 18.4142
658, 18.1576
656, 17.9429
654, 17.6559
652, 17.4165
650, 17.2359
648, 17.1333
646, 17.0203
644, 16.9116
642, 16.8981
640, 16.8855
638, 16.8541
636, 16.8292
634, 16.8363
632, 16.9126
630, 16.9388
628, 16.9315
626, 16.957
624, 16.979
622, 17.0402
620, 17.0956
618, 17.1204
616, 17.1816
614, 17.2282
612, 17.2787
610, 17.3424
608, 17.3467
606, 17.3556
604, 17.4146
602, 17.4695
600, 17.5095
598, 17.5277
596, 17.5371
594, 17.5487
592, 17.5628
590, 17.5842
588, 17.5636
586, 17.5577
584, 17.5814
582, 17.5791
580, 17.5853
578, 17.5663
576, 17.5411
574, 17.5177
572, 17.4846
570, 17.4884
568, 17.4892
566, 17.4703
564, 17.48
562, 17.4603
560, 17.4248
558, 17.4085
556, 17.4176
554, 17.4432
552, 17.4452
550, 17.4433
548, 17.4666
546, 17.4729
544, 17.4775
542, 17.5082
540, 17.5294
538, 17.583
536, 17.6183
534, 17.6413
532, 17.6903
530, 17.7598
528, 17.8245
526, 17.86
524, 17.917
522, 17.982
520, 18.0438
518, 18.0955
516, 18.1288
514, 18.1873
512, 18.231
510, 18.2729
508, 18.37
506, 18.4518
504, 18.5103
502, 18.595
500, 18.6654
498, 18.7763
496, 18.8842
494, 18.9796
492, 19.0991
490, 19.175
488, 19.1978
486, 19.2255
484, 19.2199
482, 19.2157
480, 19.2147
478, 19.2351
476, 19.3244
474, 19.3472
472, 19.3099
470, 19.4048
468, 19.4411
466, 19.4093
464, 19.4401
462, 19.4679
460, 19.5254
458, 19.575
456, 19.5739
454, 19.6232
452, 19.6562
450, 19.643
448, 19.6342
446, 19.6217
444, 19.5406
442, 19.4116
440, 19.4581
438, 19.4897
436, 19.4188
434, 19.4149
432, 19.3727
430, 19.3202
428, 19.4151
426, 19.4181
424, 19.3379
422, 19.4591
420, 19.6561
418, 19.7896
416, 19.8096
414, 19.907
412, 20.0993
410, 20.1798
408, 20.2258
406, 20.2213
404, 20.0579
402, 20.1176
400, 20.357
398, 20.4166
396, 20.6195
394, 20.6216
392, 20.6137
390, 20.5968
388, 20.6132
386, 20.6303
384, 20.618
382, 20.5986
380, 20.6012
378, 20.6012
376, 20.6012
374, 20.6012
372, 20.6012
370, 20.6012
368, 20.6012
366, 20.6012
364, 20.6012
362, 20.6012
360, 20.6012
358, 20.6012
356, 20.6012
354, 20.6012
352, 20.6012
350, 20.6012
348, 20.6012
346, 20.6012
344, 20.6012
342, 20.6012
340, 20.6012
338, 20.6012
336, 20.6012
334, 20.6012
332, 20.6012
330, 20.6012
328, 20.6012
326, 20.6012
324, 20.6012
322, 20.6012
320, 20.6012
318, 20.6012
316, 20.6012
314, 20.6012
312, 20.6012
310, 20.6012
308, 20.6012
306, 20.6012
304, 20.6012
302, 20.6012
300, 20.6012