File: UV-Vis data/Reflection/7-FAPbI3 MAPbBr3 4-6 .Sample.Raw.csv
nm, %R
1100, 25.3069
1098, 25.2117
1096, 25.1303
1094, 25.0538
1092, 24.952
1090, 24.852
1088, 24.7491
1086, 24.6536
1084, 24.553
1082, 24.4534
1080, 24.3257
1078, 24.2309
1076, 24.1282
1074, 24.0102
1072, 23.9037
1070, 23.7728
1068, 23.6481
1066, 23.5262
1064, 23.4001
1062, 23.2749
1060, 23.1441
1058, 23.004
1056, 22.8486
1054, 22.6975
1052, 22.5524
1050, 22.4003
1048, 22.2506
1046, 22.0934
1044, 21.9417
1042, 21.7872
1040, 21.6334
1038, 21.4653
1036, 21.3006
1034, 21.1249
1032, 20.947
1030, 20.7703
1028, 20.5969
1026, 20.432
1024, 20.2529
1022, 20.058
1020, 19.8739
1018, 19.6815
1016, 19.5063
1014, 19.3401
1012, 19.1487
1010, 18.9491
1008, 18.7492
1006, 18.5495
1004, 18.3552
1002, 18.1534
1000, 17.9528
998, 17.7466
996, 17.5518
994, 17.347
992, 17.1442
990, 16.9396
988, 16.7509
986, 16.5521
984, 16.3449
982, 16.133
980, 15.9305
978, 15.7231
976, 15.5329
974, 15.3498
972, 15.1483
970, 14.9477
968, 14.7604
966, 14.5797
964, 14.3883
962, 14.2097
960, 14.0289
958, 13.8403
956, 13.6637
954, 13.4944
952, 13.3294
950, 13.1618
948, 12.9937
946, 12.8422
944, 12.6964
942, 12.5474
940, 12.398
938, 12.2649
936, 12.1403
934, 12.0129
932, 11.8888
930, 11.7992
928, 11.6973
926, 11.5969
924, 11.5028
922, 11.4184
920, 11.346
918, 11.2766
916, 11.2141
914, 11.1635
912, 11.1148
910, 11.0768
908, 11.0558
906, 11.0434
904, 11.0324
902, 11.0429
900, 11.038
898, 11.0432
896, 11.076
894, 11.1296
892, 11.1894
890, 11.2496
888, 11.3164
886, 11.4006
884, 11.4975
882, 11.6162
880, 11.7219
878, 11.8244
876, 11.9674
874, 12.1226
872, 12.2844
870, 12.4489
868, 12.6475
866, 12.8395
864, 13.0029
862, 13.2069
860, 13.4413
858, 13.4413
856, 13.4413
854, 13.4413
852, 13.4413
850, 13.4413
848, 13.4413
846, 13.4413
844, 13.4413
842, 13.4413
840, 13.4413
838, 13.4413
836, 13.4413
834, 13.4413
832, 13.4413
830, 13.4413
828, 13.4413
826, 13.4413
824, 13.4413
822, 13.4413
820, 13.4413
818, 15.2378
816, 17.513
814, 18.0853
812, 18.5352
810, 18.9435
808, 19.2515
806, 19.2589
804, 19.2723
802, 19.5459
800, 19.868
798, 20.1802
796, 20.5393
794, 20.8656
792, 21.241
790, 21.6993
788, 22.0334
786, 22.3229
784, 22.5933
782, 22.9498
780, 23.2901
778, 23.6063
776, 23.825
774, 24.0516
772, 24.5193
770, 24.8969
768, 25.149
766, 25.2805
764, 25.412
762, 25.7769
760, 25.9787
758, 26.0899
756, 26.2924
754, 26.4198
752, 26.531
750, 26.6208
748, 26.7409
746, 26.8544
744, 26.8701
742, 26.9083
740, 26.976
738, 26.9702
736, 26.9568
734, 26.9174
732, 26.8751
730, 26.7817
728, 26.6575
726, 26.5881
724, 26.4059
722, 26.2036
720, 26.0307
718, 25.8258
716, 25.5472
714, 25.2466
712, 25.0023
710, 24.6783
708, 24.3538
706, 24.0222
704, 24.2067
702, 24.4992
700, 23.9866
698, 23.4415
696, 23.0288
694, 22.5262
692, 21.965
690, 21.3673
688, 20.6858
686, 20.2399
684, 19.9979
682, 19.5871
680, 19.027
678, 18.4872
676, 18.0073
674, 17.5948
672, 17.1858
670, 16.7498
668, 16.4139
666, 16.1152
664, 15.8585
662, 15.7607
660, 15.7164
658, 15.7266
656, 15.8846
654, 16.0676
652, 16.3214
650, 16.689
648, 17.105
646, 17.4307
644, 17.7173
642, 17.966
640, 18.072
638, 18.0661
636, 17.969
634, 17.8004
632, 17.6109
630, 17.3637
628, 17.1233
626, 16.899
624, 16.7156
622, 16.6083
620, 16.4947
618, 16.3853
616, 16.3343
614, 16.3102
612, 16.3189
610, 16.3256
608, 16.3223
606, 16.3642
604, 16.4173
602, 16.4734
600, 16.5287
598, 16.5665
596, 16.6143
594, 16.7121
592, 16.7868
590, 16.8489
588, 16.9111
586, 16.9773
584, 17.0397
582, 17.0834
580, 17.1244
578, 17.1522
576, 17.1533
574, 17.1669
572, 17.1814
570, 17.1734
568, 17.129
566, 17.0651
564, 16.9766
562, 16.848
560, 16.9245
558, 17.212
556, 17.3145
554, 17.3169
552, 17.2837
550, 17.2212
548, 17.1939
546, 17.1553
544, 17.0908
542, 17.0549
540, 17.0002
538, 16.9684
536, 16.9298
534, 16.8728
532, 16.8305
530, 16.8127
528, 16.7865
526, 16.7274
524, 16.6714
522, 16.6303
520, 16.5849
518, 16.4954
516, 16.392
514, 16.2752
512, 16.1581
510, 16.0752
508, 16.0712
506, 16.115
504, 16.2354
502, 16.4983
500, 16.8362
498, 17.2616
496, 17.7144
494, 18.1835
492, 18.67
490, 19.0613
488, 19.3345
486, 19.2489
484, 18.7212
482, 18.3185
480, 18.1859
478, 18.0968
476, 18.0256
474, 17.8994
472, 17.7293
470, 17.692
468, 17.6061
466, 17.479
464, 17.4765
462, 17.5132
460, 17.6344
458, 17.7986
456, 17.934
454, 18.1886
452, 18.3716
450, 18.686
448, 19.114
446, 19.1216
444, 18.9377
442, 18.7578
440, 18.7582
438, 18.7826
436, 18.726
434, 18.7098
432, 18.6875
430, 18.6758
428, 18.7356
426, 18.7466
424, 18.6961
422, 18.7715
420, 18.8895
418, 18.9325
416, 18.8641
414, 18.9171
412, 19.0578
410, 18.9944
408, 18.8876
406, 18.7563
404, 18.5024
402, 18.502
400, 18.579
398, 18.4876
396, 18.5939
394, 18.6873
392, 18.7587
390, 18.8556
388, 19.0196
386, 19.189
384, 19.3641
382, 19.5599
380, 19.7824
378, 19.7824
376, 19.7824
374, 19.7824
372, 19.7824
370, 19.7824
368, 19.7824
366, 19.7824
364, 19.7824
362, 19.7824
360, 19.7824
358, 19.7824
356, 19.7824
354, 19.7824
352, 19.7824
350, 19.7824
348, 19.7824
346, 19.7824
344, 19.7824
342, 19.7824
340, 19.7824
338, 19.7824
336, 19.7824
334, 19.7824
332, 19.7824
330, 19.7824
328, 19.7824
326, 19.7824
324, 19.7824
322, 19.7824
320, 19.7824
318, 19.7824
316, 19.7824
314, 19.7824
312, 19.7824
310, 19.7824
308, 19.7824
306, 19.7824
304, 19.7824
302, 19.7824
300, 19.7824