File: UV-Vis data/Reflection/8-3FAPbI3-7MAPbBr3.Sample.Raw.csv
nm, %R
1200, 24.7964
1198, 24.8703
1196, 24.9372
1194, 25.0023
1192, 25.0555
1190, 25.1336
1188, 25.1863
1186, 25.2417
1184, 25.304
1182, 25.369
1180, 25.4127
1178, 25.4797
1176, 25.5171
1174, 25.5634
1172, 25.6085
1170, 25.6628
1168, 25.7014
1166, 25.7503
1164, 25.7903
1162, 25.837
1160, 25.8823
1158, 25.9194
1156, 25.935
1154, 25.9849
1152, 26.0212
1150, 26.0309
1148, 26.0641
1146, 26.0981
1144, 26.1188
1142, 26.1543
1140, 26.1627
1138, 26.1697
1136, 26.1873
1134, 26.2107
1132, 26.2357
1130, 26.2341
1128, 26.2443
1126, 26.2504
1124, 26.2694
1122, 26.2676
1120, 26.251
1118, 26.252
1116, 26.2431
1114, 26.2442
1112, 26.2213
1110, 26.2109
1108, 26.2104
1106, 26.1879
1104, 26.1605
1102, 26.1396
1100, 26.1063
1098, 26.0943
1096, 26.0713
1094, 26.0298
1092, 25.9935
1090, 25.9387
1088, 25.9105
1086, 25.8488
1084, 25.8161
1082, 25.7553
1080, 25.6903
1078, 25.6386
1076, 25.5952
1074, 25.538
1072, 25.4719
1070, 25.4056
1068, 25.3482
1066, 25.2729
1064, 25.2043
1062, 25.1266
1060, 25.04
1058, 24.9595
1056, 24.8711
1054, 24.7745
1052, 24.6917
1050, 24.5921
1048, 24.4984
1046, 24.3954
1044, 24.2909
1042, 24.179
1040, 24.0686
1038, 23.958
1036, 23.84
1034, 23.717
1032, 23.5916
1030, 23.4671
1028, 23.3444
1026, 23.2129
1024, 23.0799
1022, 22.9396
1020, 22.7957
1018, 22.6545
1016, 22.5003
1014, 22.3534
1012, 22.205
1010, 22.0514
1008, 21.8823
1006, 21.7185
1004, 21.5751
1002, 21.417
1000, 21.2456
998, 21.0782
996, 20.9078
994, 20.7384
992, 20.5621
990, 20.3789
988, 20.1952
986, 20.0139
984, 19.8343
982, 19.6345
980, 19.4358
978, 19.252
976, 19.0642
974, 18.86
972, 18.6685
970, 18.4731
968, 18.2748
966, 18.0723
964, 17.8682
962, 17.6635
960, 17.4571
958, 17.2614
956, 17.056
954, 16.8473
952, 16.6473
950, 16.4422
948, 16.2372
946, 16.031
944, 15.831
942, 15.6252
940, 15.431
938, 15.2327
936, 15.0309
934, 14.8481
932, 14.6519
930, 14.4494
928, 14.2483
926, 14.0597
924, 13.8814
922, 13.6995
920, 13.5279
918, 13.3537
916, 13.1634
914, 12.9947
912, 12.8287
910, 12.6707
908, 12.5211
906, 12.3554
904, 12.199
902, 12.0637
900, 11.9269
898, 11.805
896, 11.6783
894, 11.5553
892, 11.4451
890, 11.3465
888, 11.2326
886, 11.1467
884, 11.0763
882, 11.0169
880, 10.9574
878, 10.9156
876, 10.8476
874, 10.8182
872, 10.7952
870, 10.794
868, 10.8055
866, 10.8027
864, 10.7852
862, 10.833
860, 10.8746
858, 10.8746
856, 10.8746
854, 10.8746
852, 10.8746
850, 10.8746
848, 10.8746
846, 10.8746
844, 10.8746
842, 10.8746
840, 13.5005
838, 14.602
836, 14.407
834, 14.0886
832, 13.3457
830, 12.7969
828, 12.4522
826, 12.3695
824, 12.1585
822, 11.9456
820, 11.8467
818, 11.6067
816, 11.5777
814, 11.6072
812, 11.5227
810, 11.4448
808, 11.3406
806, 11.4926
804, 11.6502
802, 11.6973
800, 11.6947
798, 11.6826
796, 11.6838
794, 11.7099
792, 11.6666
790, 11.6519
788, 11.6273
786, 11.5989
784, 11.6405
782, 11.6271
780, 11.6356
778, 11.6747
776, 11.6776
774, 11.6992
772, 11.6594
770, 11.6549
768, 11.7134
766, 11.7246
764, 11.7656
762, 11.7822
760, 11.7465
758, 11.7326
756, 11.7594
754, 11.7432
752, 11.7452
750, 11.7514
748, 11.7835
746, 11.7956
744, 11.7992
742, 11.797
740, 11.7936
738, 11.8042
736, 11.8041
734, 11.8289
732, 11.8295
730, 11.8126
728, 11.8066
726, 11.8456
724, 11.8525
722, 11.8696
720, 11.8878
718, 11.8786
716, 11.8689
714, 11.9069
712, 11.8951
710, 11.8848
708, 11.8927
706, 11.9175
704, 11.9181
702, 11.9029
700, 11.9184
698, 11.9224
696, 11.9215
694, 11.9293
692, 11.911
690, 11.9109
688, 21.9645
686, 26.861
684, 26.2802
682, 25.8084
680, 25.4186
678, 25.0047
676, 24.6416
674, 24.1891
672, 23.7771
670, 23.2564
668, 22.6821
666, 22.1079
664, 21.5021
662, 20.9039
660, 20.3298
658, 19.6898
656, 19.0288
654, 18.3458
652, 17.6951
650, 17.0063
648, 16.4026
646, 15.7787
644, 15.2034
642, 14.6905
640, 14.2179
638, 13.825
636, 13.5749
634, 13.4214
632, 13.3973
630, 13.4922
628, 13.7665
626, 14.1796
624, 14.7445
622, 15.4488
620, 16.2269
618, 17.043
616, 17.8585
614, 18.4718
612, 18.9305
610, 19.016
608, 18.824
606, 18.7619
604, 18.5852
602, 18.2048
600, 17.8036
598, 17.4943
596, 17.2342
594, 17.0381
592, 16.8918
590, 16.8116
588, 16.7521
586, 16.7399
584, 16.7517
582, 16.774
580, 16.8333
578, 16.9295
576, 17.0518
574, 17.1745
572, 17.2625
570, 17.419
568, 17.5924
566, 17.7966
564, 18.0381
562, 18.3455
560, 18.1094
558, 17.7715
556, 17.7096
554, 17.7184
552, 17.7834
550, 17.8427
548, 17.8758
546, 17.8961
544, 17.9227
542, 17.9408
540, 17.9454
538, 17.954
536, 17.9502
534, 17.9355
532, 17.9331
530, 17.9444
528, 17.9429
526, 17.9783
524, 18.0053
522, 18.0621
520, 18.1433
518, 18.2613
516, 18.4141
514, 18.6397
512, 18.8423
510, 19.0177
508, 19.1513
506, 19.1291
504, 19.0518
502, 19.0629
500, 18.5062
498, 17.979
496, 17.5276
494, 16.9887
492, 16.4449
490, 15.9939
488, 15.6318
486, 15.9106
484, 16.8373
482, 17.6029
480, 18.0046
478, 18.328
476, 18.6192
474, 18.9749
472, 19.3885
470, 19.7388
468, 20.0504
466, 20.2919
464, 20.5044
462, 20.4512
460, 20.4527
458, 20.4794
456, 20.2676
454, 20.0868
452, 19.9724
450, 19.5594
448, 18.9223
446, 18.9362
444, 19.1831
442, 19.384
440, 19.5596
438, 19.5879
436, 19.7197
434, 19.8038
432, 19.8609
430, 19.8819
428, 19.9709
426, 20.0508
424, 20.0712
422, 20.1053
420, 20.21
418, 20.1921
416, 20.1902
414, 20.2713
412, 20.3556
410, 20.4652
408, 20.5765
406, 20.6017
404, 20.6077
402, 20.6254
400, 20.6088
398, 20.5857
396, 20.5979
394, 20.5868
392, 20.6174
390, 20.7114
388, 20.6332
386, 20.5421
384, 20.5206
382, 20.495
380, 20.5462
378, 20.4326
376, 20.7948
374, 21.8756
372, 22.2945
370, 21.8944
368, 21.3942
366, 21.0865
364, 20.9036
362, 20.6067
360, 20.3275
358, 20.1781
356, 20.0907
354, 19.9385
352, 19.7311
350, 19.8262
348, 19.7426
346, 19.5723
344, 19.6757
342, 19.4481
340, 19.3723
338, 19.8086
336, 19.4022
334, 19.4022
332, 19.4022
330, 19.4022
328, 19.4022
326, 19.4022
324, 19.4022
322, 19.4022
320, 19.4022
318, 19.4022
316, 20.5359
314, 19.7293
312, 19.7293
310, 19.7293
308, 19.7293
306, 19.7293
304, 19.7293
302, 19.7293
300, 19.7293