File: UV-Vis data/Reflection/9-2FAPbI3-8MAPbBr3.Sample.Raw.csv
nm, %R
1200, 22.5679
1198, 22.64
1196, 22.7154
1194, 22.7796
1192, 22.8408
1190, 22.9071
1188, 22.9622
1186, 23.0121
1184, 23.0799
1182, 23.1384
1180, 23.1921
1178, 23.2552
1176, 23.3001
1174, 23.3572
1172, 23.4215
1170, 23.4668
1168, 23.5028
1166, 23.5521
1164, 23.594
1162, 23.6417
1160, 23.6994
1158, 23.74
1156, 23.7613
1154, 23.8176
1152, 23.8598
1150, 23.8736
1148, 23.9168
1146, 23.9451
1144, 23.9704
1142, 24.0137
1140, 24.0349
1138, 24.0479
1136, 24.0807
1134, 24.104
1132, 24.1418
1130, 24.162
1128, 24.1819
1126, 24.1886
1124, 24.2211
1122, 24.2353
1120, 24.2265
1118, 24.2401
1116, 24.2491
1114, 24.2633
1112, 24.2501
1110, 24.2584
1108, 24.2599
1106, 24.2419
1104, 24.2364
1102, 24.2234
1100, 24.2238
1098, 24.2163
1096, 24.203
1094, 24.1831
1092, 24.1661
1090, 24.1292
1088, 24.1163
1086, 24.0747
1084, 24.0494
1082, 24.0143
1080, 23.9728
1078, 23.9482
1076, 23.9124
1074, 23.8733
1072, 23.8405
1070, 23.7982
1068, 23.7598
1066, 23.7047
1064, 23.6533
1062, 23.5997
1060, 23.5389
1058, 23.4771
1056, 23.4129
1054, 23.3467
1052, 23.2878
1050, 23.2219
1048, 23.1529
1046, 23.0724
1044, 23.0009
1042, 22.9179
1040, 22.8358
1038, 22.743
1036, 22.655
1034, 22.5723
1032, 22.4795
1030, 22.3774
1028, 22.2836
1026, 22.1792
1024, 22.0775
1022, 21.9714
1020, 21.8583
1018, 21.7414
1016, 21.6325
1014, 21.517
1012, 21.397
1010, 21.2793
1008, 21.1486
1006, 21.0151
1004, 20.902
1002, 20.7783
1000, 20.6485
998, 20.5112
996, 20.3716
994, 20.2328
992, 20.0871
990, 19.9359
988, 19.7927
986, 19.651
984, 19.5031
982, 19.3446
980, 19.1837
978, 19.0309
976, 18.872
974, 18.7067
972, 18.5483
970, 18.3827
968, 18.218
966, 18.0525
964, 17.8844
962, 17.7093
960, 17.5374
958, 17.3767
956, 17.2052
954, 17.034
952, 16.8662
950, 16.6914
948, 16.516
946, 16.3399
944, 16.1735
942, 15.9986
940, 15.8308
938, 15.6603
936, 15.4846
934, 15.318
932, 15.1411
930, 14.9627
928, 14.7909
926, 14.621
924, 14.4472
922, 14.2939
920, 14.146
918, 13.9786
916, 13.8136
914, 13.6592
912, 13.4937
910, 13.3433
908, 13.2069
906, 13.0483
904, 12.9005
902, 12.7752
900, 12.631
898, 12.4973
896, 12.3652
894, 12.2392
892, 12.1144
890, 12.0058
888, 11.8908
886, 11.7953
884, 11.6985
882, 11.6136
880, 11.5396
878, 11.4634
876, 11.3711
874, 11.3151
872, 11.2628
870, 11.2353
868, 11.1728
866, 11.1255
864, 11.0707
862, 11.0741
860, 11.0699
858, 11.0699
856, 11.0699
854, 11.0699
852, 11.0699
850, 11.0699
848, 11.0699
846, 11.0699
844, 11.0699
842, 11.0699
840, 13.6901
838, 14.7891
836, 14.5945
834, 14.2768
832, 13.5316
830, 12.982
828, 12.6371
826, 12.5545
824, 12.3437
822, 12.1315
820, 12.033
818, 11.7935
816, 11.7646
814, 11.7941
812, 11.7099
810, 11.6318
808, 11.5279
806, 11.6797
804, 11.8373
802, 11.8846
800, 11.8821
798, 11.8703
796, 11.8716
794, 11.8978
792, 11.8548
790, 11.8399
788, 11.816
786, 11.7875
784, 11.8293
782, 11.8162
780, 11.8246
778, 11.8637
776, 11.8668
774, 11.8888
772, 11.8496
770, 11.8452
768, 11.9036
766, 11.915
764, 11.956
762, 11.9733
760, 11.9378
758, 11.9241
756, 11.9509
754, 11.9348
752, 11.9369
750, 11.9433
748, 11.9757
746, 11.9881
744, 11.9917
742, 11.9898
740, 11.9866
738, 11.9973
736, 11.9972
734, 12.0223
732, 12.023
730, 12.0062
728, 12.0005
726, 12.0396
724, 12.0465
722, 12.0637
720, 12.0821
718, 12.073
716, 12.0634
714, 12.1014
712, 12.0899
710, 12.0797
708, 12.0877
706, 12.1126
704, 12.1134
702, 12.0983
700, 12.1138
698, 12.118
696, 12.1171
694, 12.125
692, 12.1069
690, 12.1069
688, 12.0843
686, 12.1193
684, 12.1533
682, 12.1577
680, 12.1467
678, 12.1545
676, 12.1848
674, 12.1816
672, 12.189
670, 12.1863
668, 12.1749
666, 12.1694
664, 12.1821
662, 12.2096
660, 12.2141
658, 12.2074
656, 17.3378
654, 19.8357
652, 19.358
650, 18.8513
648, 18.4
646, 17.9781
644, 17.485
642, 16.9576
640, 16.4672
638, 16.0137
636, 15.6368
634, 15.2036
632, 14.866
630, 14.5453
628, 14.2469
626, 14.0174
624, 13.7871
622, 13.6895
620, 13.6818
618, 13.7751
616, 13.9577
614, 14.2586
612, 14.7228
610, 15.3183
608, 16.0308
606, 16.8558
604, 17.8278
602, 18.8175
600, 19.7659
598, 20.5823
596, 21.0827
594, 21.2575
592, 21.0385
590, 20.6077
588, 20.0588
586, 19.458
584, 18.8681
582, 18.383
580, 17.9976
578, 17.6591
576, 17.4524
574, 17.3686
572, 17.3157
570, 17.2991
568, 17.3446
566, 17.465
564, 17.6782
562, 17.9725
560, 17.54
558, 16.9603
556, 16.803
554, 16.7848
552, 16.8606
550, 16.9429
548, 17.0032
546, 17.045
544, 17.1187
542, 17.1884
540, 17.2394
538, 17.2766
536, 17.3267
534, 17.3705
532, 17.4317
530, 17.4858
528, 17.5674
526, 17.6541
524, 17.7757
522, 17.9399
520, 18.136
518, 18.3657
516, 18.6258
514, 18.9487
512, 19.2617
510, 19.5471
508, 19.7409
506, 19.7421
504, 19.6332
502, 19.2684
500, 18.6548
498, 17.8767
496, 16.9997
494, 16.0988
492, 15.2587
490, 14.444
488, 13.8228
486, 14.1057
484, 15.4591
482, 16.6218
480, 17.224
478, 17.6824
476, 18.1113
474, 18.589
472, 19.1101
470, 19.5953
468, 20.0163
466, 20.3356
464, 20.5312
462, 20.5392
460, 20.4989
458, 20.3453
456, 20.0957
454, 19.9234
452, 19.685
450, 19.0051
448, 18.0555
446, 18.0067
444, 18.4444
442, 18.8195
440, 18.9912
438, 19.072
436, 19.2183
434, 19.3634
432, 19.3616
430, 19.3558
428, 19.3536
426, 19.3473
424, 19.3659
422, 19.3682
420, 19.355
418, 19.3487
416, 19.3567
414, 19.3435
412, 19.3395
410, 19.3287
408, 19.3094
406, 19.2939
404, 19.2992
402, 19.3164
400, 19.2992
398, 19.2757
396, 19.2861
394, 19.2753
392, 19.3051
390, 19.3976
388, 19.3188
386, 19.2265
384, 19.2047
382, 19.1764
380, 19.2276
378, 19.1099
376, 19.466
374, 20.5583
372, 20.9834
370, 20.5792
368, 20.0718
366, 19.7558
364, 19.5672
362, 19.2669
360, 18.9842
358, 18.8314
356, 18.7409
354, 18.5846
352, 18.3739
350, 18.4669
348, 18.3819
346, 18.2087
344, 18.3138
342, 18.0824
340, 18.0053
338, 18.4491
336, 18.0357
334, 18.0357
332, 18.0357
330, 18.0357
328, 18.0357
326, 18.0357
324, 18.0357
322, 18.0357
320, 18.0357
318, 18.0357
316, 19.1886
314, 18.3684
312, 18.3684
310, 18.3684
308, 18.3684
306, 18.3684
304, 18.3684
302, 18.3684
300, 18.3684